TIME,SATS,LATITUDE,LONGITUDE,ALT,COURSE,SPEED,PRESSURE,INTTEMP,EXTTEMP,HUMIDITY,GX,GY,GZ,AX,AY,AZ,MX,MY,MZ
16362700,4,31.914642,-98.599166,1936.68,75.9,4.38,1004.13,18.44,8.5,49.8,-12.21,-6.96,2.44,-0.15,-0.08,0.63,1.17,-3.1,5.73
16362800,5,31.91455,-98.599166,1946.85,75.9,4.38,1004.13,18.37,14.75,49.8,-12.63,-6.96,2.38,-0.15,-0.09,0.64,1.18,-3.09,5.72
16362800,5,31.91455,-98.599166,1946.85,75.9,4.38,1004.29,18.37,14.5,49.7,-12.51,-6.84,2.5,-0.15,-0.09,0.63,1.17,-3.11,5.73
16362900,6,31.91459,-98.599464,1873.69,80.31,1.86,1004.29,18.31,14.25,50.1,-12.33,-6.59,2.69,-0.15,-0.05,0.61,1.17,-3.1,5.73
16363000,6,31.914596,-98.599586,1840.88,80.31,1.86,1004.29,18.31,14,50.1,-12.63,-6.9,2.62,-0.11,-0.04,0.65,1.2,-3.04,5.73
16363000,6,31.914596,-98.599586,1840.88,80.31,1.86,1004.29,18.31,13.75,49.7,-12.39,-6.84,2.38,-0.12,-0.07,0.57,1.18,-3.09,5.74
16363100,7,31.914594,-98.599678,1816.93,80.31,1.86,1004.13,18.25,13.75,49.7,-12.39,-7.2,2.69,-0.13,-0.12,0.64,1.17,-3.04,5.73
16363200,7,31.914592,-98.599739,1798.23,80.83,0.76,1004.53,18.31,14,50.7,-12.39,-6.96,2.62,-0.12,-0.13,0.65,1.18,-3.07,5.72
16363300,7,31.914594,-98.599792,1780.84,80.83,0.76,1004.29,18.31,14.25,50.7,-12.45,-6.9,2.81,-0.14,-0.13,0.61,1.17,-3.05,5.72
16363300,7,31.914594,-98.599792,1780.84,80.83,0.76,1004.29,18.31,14.25,51.9,-12.27,-6.77,2.75,-0.17,-0.12,0.61,1.17,-3.07,5.73
16363400,7,31.914592,-98.599845,1758.2,80.83,0.71,1004.29,18.31,14.25,52.3,-12.27,-6.71,2.62,-0.16,-0.14,0.62,1.17,-3.07,5.73
16363500,7,31.914598,-98.599891,1743.11,80.83,0.71,1004.29,18.31,14.25,52.3,-12.33,-6.71,2.5,-0.15,-0.1,0.62,1.16,-3.06,5.74
16363500,7,31.914598,-98.599891,1743.11,80.83,0.69,1004.29,18.31,14,51.4,-12.57,-6.96,2.56,-0.15,-0.13,0.6,1.18,-3.04,5.7
16363600,7,31.914609,-98.599922,1743.11,80.83,1.25,1004.29,18.25,13.75,51.2,-12.33,-6.96,2.38,-0.12,-0.13,0.63,1.18,-3.07,5.72
16363700,7,31.914606,-98.599945,1721.78,80.83,0.83,1004.29,18.25,14,50.1,-12.15,-7.2,2.56,-0.12,-0.12,0.63,1.17,-3.06,5.72
16363800,7,31.914604,-98.599952,1715.88,80.83,0.83,1004.29,18.31,14.25,50.1,-12.15,-6.71,2.38,-0.16,-0.04,0.64,1.17,-3.08,5.74
16363800,7,31.914604,-98.599952,1715.88,80.83,0.41,1004.13,18.25,14.25,50.1,-12.33,-6.65,2.62,-0.14,-0.19,0.49,1.14,-3.01,5.74
16363900,7,31.914598,-98.599967,1715.88,80.83,0.63,1004.53,18.31,14.25,50.1,-12.45,-6.77,2.81,0.09,-0.1,0.56,1.51,-2.8,5.71
16364000,7,31.914583,-98.59999,1697.18,80.83,0.53,1004.13,18.31,15.75,50.9,-12.27,-6.41,2.44,0.04,-0.3,0.61,1.6,-2.78,5.78
16364000,7,31.914583,-98.59999,1697.18,80.83,0.53,1004.29,18.31,17.5,50.9,-12.45,-6.71,2.99,0.05,-0.34,0.4,1.66,-2.9,5.64
16364100,7,31.91455,-98.600006,1679.79,80.83,0.53,1004.13,18.37,18,50.9,-12.21,-7.08,2.69,0.08,-0.38,0.61,1.8,-3.15,5.39
16364200,7,31.914527,-98.600021,1667.98,80.83,0.53,1004.13,18.31,17.25,49.7,-12.15,-6.9,2.75,0.1,-0.34,0.61,1.8,-3.17,5.39
16364300,7,31.914497,-98.600044,1650.26,80.83,0.26,1004.29,18.31,16.5,50,-12.33,-6.9,2.62,0.1,-0.33,0.6,1.82,-3.17,5.4
16364400,7,31.914482,-98.600067,1640.42,80.83,0.26,1004.53,18.31,16.25,50,-12.27,-6.9,2.5,0.13,-1.79,0.52,1.81,-3.19,5.28
16364400,7,31.914482,-98.600067,1640.42,80.83,0.26,1004.29,18.31,16,49.6,-12.63,-6.65,2.26,0.1,-0.25,0.53,1.89,-3.28,5.29
16364500,7,31.914474,-98.600082,1633.86,80.83,0.1,1004.29,18.25,16,50,-12.39,-7.14,2.69,0.05,-0.19,0.45,1.9,-3.29,5.28
16364600,7,31.914468,-98.60009,1629.59,80.83,0.1,1004.29,18.25,16,50,-12.33,-7.02,2.5,0.09,-0.25,0.54,1.89,-3.25,5.28
16364700,7,31.914459,-98.600097,1626.31,80.83,0.26,1004.13,18.31,15.75,50,-12.33,-7.02,2.44,0.19,-0.29,0.6,1.92,-3.26,5.33
16364700,7,31.914459,-98.600097,1626.31,80.83,0.24,1004.29,18.25,15.5,49.6,-12.39,-6.77,2.56,0.21,-0.19,0.52,1.92,-3.28,5.33
16364800,7,31.914445,-98.600105,1626.31,80.83,0.53,1004.29,18.31,15.5,50,-12.33,-6.71,2.5,0.22,-0.24,0.58,1.93,-3.29,5.33
16364900,7,31.914434,-98.600112,1618.11,80.83,0.7,1004.29,18.31,15.25,49.7,-12.45,-7.02,2.87,0.2,-0.21,0.56,1.92,-3.28,5.32
16364900,7,31.914434,-98.600112,1618.11,80.83,0.7,1004.53,18.31,15.25,49.7,-12.57,-7.14,2.5,0.19,-0.27,0.58,1.91,-3.25,5.32
16365000,7,31.914426,-98.60012,1614.83,80.83,0.45,1004.29,18.31,15,49.1,-12.21,-6.84,2.38,0.11,-0.21,0.55,1.89,-3.26,5.32
16365100,7,31.914428,-98.600112,1615.16,80.83,0.45,1004.29,18.31,14.75,49.1,-12.33,-6.53,2.69,0.17,-0.27,0.58,1.91,-3.25,5.32
16365200,7,31.914424,-98.60012,1615.16,80.83,0.14,1004.29,18.31,14.5,48.9,-12.27,-6.9,2.5,0.16,-0.25,0.63,1.91,-3.28,5.31
16365200,7,31.914424,-98.60012,1615.16,80.83,0.14,1004.13,18.31,14.5,48.9,-12.33,-6.84,2.44,0.17,-0.24,0.59,1.91,-3.25,5.32
16365300,7,31.914424,-98.60012,1614.5,80.83,0.14,1004.29,18.31,14.5,49.6,-12.39,-6.84,2.14,0.15,-0.25,0.55,1.91,-3.27,5.33
16365400,7,31.914422,-98.60012,1612.2,80.83,0.41,1004.29,18.31,14.5,50,-12.39,-6.84,2.62,0.14,-0.27,0.55,1.91,-3.29,5.34
16365500,7,31.914419,-98.600135,1607.61,80.83,0.41,1004.29,18.25,14.25,50,-12.39,-6.9,2.38,0.08,-0.13,0.59,1.9,-3.29,5.27
16365500,7,31.914419,-98.600135,1607.61,80.83,0.41,1004.13,18.31,14.5,49.6,-12.45,-7.14,2.62,0.05,-0.13,0.61,1.85,-3.32,5.24
16365600,7,31.914413,-98.600143,1601.38,80.83,0.41,1004.13,18.31,15.5,50,-12.45,-7.2,2.56,0.06,-0.08,0.61,1.85,-3.31,5.23
16365700,7,31.914411,-98.600158,1595.14,80.83,0.36,1004.53,18.25,15.25,49.7,-12.27,-6.77,2.56,0.05,0.01,0.67,1.87,-3.33,5.24
16365800,7,31.914409,-98.600166,1591.86,80.83,0.36,1004.29,18.31,15.25,49.7,-12.45,-6.96,2.5,0.05,-0.06,0.62,1.87,-3.31,5.22
16365800,7,31.914409,-98.600166,1591.86,80.83,0.36,1004.29,18.31,15,49.6,-12.15,-6.9,2.38,0.12,0.09,0.71,1.88,-3.36,5.24
16365900,7,31.914405,-98.600166,1589.57,80.83,0.22,1004.13,18.31,15,49.9,-12.02,-7.02,2.38,0.09,0.12,0.61,1.89,-3.35,5.24
16370000,7,31.914407,-98.600173,1585.63,80.83,0.22,1004.13,18.25,15.25,50,-12.21,-6.77,2.5,0.06,0.15,0.66,1.87,-3.31,5.23
16370000,7,31.914407,-98.600173,1585.63,80.83,0.17,1004.13,18.31,15,50,-12.51,-6.84,2.44,0.08,0.09,0.63,1.87,-3.28,5.21
16370100,7,31.914407,-98.600181,1585.63,80.83,0.26,1004.13,18.31,15.25,50,-12.15,-6.84,2.56,0.1,-0.01,0.67,1.86,-3.25,5.24
16370200,7,31.914402,-98.600189,1585.63,80.83,0.47,1004.13,18.31,15,55.8,-12.15,-6.77,2.5,0.07,0.04,0.68,1.85,-3.28,5.23
16370300,7,31.914396,-98.600189,1572.51,80.83,0.44,1004.13,18.31,15,55.8,-12.27,-6.84,2.56,0.03,0.13,0.72,1.87,-3.27,5.23
16370300,7,31.914396,-98.600189,1572.51,80.83,0.44,1004.13,18.31,15,55.8,-12.27,-7.08,2.32,-0.03,0.01,0.52,1.73,-3.24,5.15
16370400,7,31.91439,-98.600189,1568.24,80.83,0.44,1004.13,18.31,14.75,52.9,-12.51,-6.77,2.44,-0.08,-0.12,0.79,1.61,-3.21,5.16
16370500,7,31.914379,-98.600189,1563.98,80.83,0.98,1004.13,18.31,14.5,52.7,-12.33,-6.84,2.81,-0.2,0.01,0.6,1.47,-3.23,5.16
16370600,7,31.914365,-98.600189,1559.71,80.83,0.98,1004.13,18.31,14,52.7,-12.33,-6.77,2.5,-0.09,-0.07,0.78,1.43,-3.28,5.13
16370700,7,31.914356,-98.600196,1556.43,110.19,1.73,1004.13,18.31,13.75,52.7,-12.39,-6.71,2.44,-0.05,0.04,0.86,1.37,-3.33,5.23
16370700,7,31.914356,-98.600196,1556.43,110.19,1.73,1004.29,18.31,13.5,49.6,-12.21,-6.9,2.44,-0.03,0.13,0.74,1.41,-3.43,5.25
16370800,7,31.914346,-98.600196,1556.1,148.23,2.52,1004.29,18.31,13.25,49.8,-12.33,-7.2,2.32,-0.01,0.14,0.64,1.41,-3.42,5.26
16370900,7,31.914333,-98.600196,1553.15,148.23,2.52,1004.13,18.31,13.25,49.8,-12.51,-7.14,2.75,0.01,-0.17,0.9,1.44,-3.41,5.22
16370900,7,31.914333,-98.600196,1553.15,148.23,2.52,1004.29,18.31,13.25,49.4,-12.63,-6.59,2.32,-0.12,0.08,0.49,1.37,-3.45,5.28
16371000,7,31.914308,-98.600219,1540.68,162.43,2.96,1004.29,18.31,13.25,49.8,-12.21,-6.77,2.44,-0.16,0.23,0.62,1.34,-3.44,5.31
16371100,7,31.914281,-98.600227,1530.18,162.43,2.96,1004.29,18.31,13,49.8,-12.27,-7.14,2.5,0.02,0.06,0.65,1.42,-3.42,5.23
16371200,8,31.914255,-98.600242,1520.34,162.93,2.85,1004.29,18.31,12.75,49.3,-12.21,-7.02,2.62,0.02,-0.13,0.67,1.47,-3.44,5.21
16371200,8,31.914255,-98.600242,1520.34,162.74,3.14,1004.29,18.31,12.75,49.3,-12.33,-7.02,2.69,-0.04,-0.03,0.67,1.5,-3.43,5.2
16371300,8,31.914228,-98.60025,1520.34,165.8,3.6,1004.29,18.25,12.75,49.5,-12.27,-7.14,2.56,-0.07,-0.15,0.76,1.53,-3.47,5.2
16371400,9,31.914203,-98.60025,1509.19,163.15,3.77,1004.13,18.31,12.5,49.8,-12.33,-6.77,2.62,-0.02,0,0.51,1.55,-3.52,5.23
16371400,9,31.914203,-98.60025,1509.19,163.15,3.77,1004.13,18.31,12.5,49.8,-12.33,-6.65,2.5,0.01,0.07,0.67,1.57,-3.49,5.22
16371500,9,31.91418,-98.60025,1502.62,163.15,3.77,1004.13,18.31,12.5,49.4,-12.57,-6.84,2.81,-0.02,0.02,0.61,1.55,-3.52,5.23
16371600,9,31.914155,-98.60025,1498.03,163.15,3.77,1004.13,18.25,12.5,49.4,-12.45,-6.96,2.62,-0.05,-0.1,0.71,1.56,-3.52,5.23
16371700,9,31.914142,-98.600242,1497.38,155.34,3.73,1004.13,18.31,12.5,49.5,-12.27,-7.08,2.75,0.01,-0.01,0.57,1.55,-3.52,5.24
16371800,9,31.914123,-98.600234,1494.75,155.34,3.73,1004.13,18.31,12.5,49.5,-12.33,-6.84,2.69,0.03,-0.12,0.79,1.56,-3.48,5.21
16371800,9,31.914123,-98.600234,1494.75,155.34,3.73,1004.13,18.25,12.5,49.3,-12.45,-6.77,2.56,-0.01,-0.06,0.56,1.54,-3.47,5.22
16371900,9,31.914106,-98.600227,1493.44,154.11,3.67,1004.13,18.31,12.5,49.8,-12.45,-6.96,2.62,-0.07,-0.07,0.72,1.52,-3.5,5.22
16372000,9,31.914087,-98.600227,1490.81,154.11,3.67,1004.29,18.31,12.5,49.8,-12.45,-7.08,2.56,0.02,-0.04,0.51,1.54,-3.51,5.22
16372000,9,31.914087,-98.600227,1490.81,156.67,3.68,1004.13,18.31,12.5,49.8,-12.45,-7.08,2.69,-0.01,-0.01,0.64,1.52,-3.47,5.21
16372100,9,31.914068,-98.600219,1490.81,154.79,3.84,1004.13,18.25,12.5,49.8,-12.08,-6.96,2.44,0.02,-0.01,0.65,1.54,-3.49,5.22
16372200,9,31.914049,-98.600212,1490.81,151.6,3.67,1004.13,18.25,12.5,49.4,-12.33,-6.77,2.44,0.02,0.01,0.7,1.51,-3.51,5.23
16372300,10,31.914035,-98.600204,1490.81,149.26,3.52,1004.13,18.25,12.5,49.7,-12.27,-6.9,2.5,0,0.07,0.67,1.5,-3.5,5.22
16372300,10,31.914035,-98.600204,1490.81,149.26,3.52,1004.13,18.31,12.25,49.7,-12.21,-6.9,2.44,0.04,0.11,0.72,1.49,-3.5,5.23
16372400,10,31.91402,-98.600196,1491.14,149.26,3.52,1004.13,18.25,12.25,49.3,-12.39,-6.9,2.5,-0.03,0.09,0.63,1.44,-3.5,5.26
16372500,10,31.914009,-98.600189,1490.16,148.76,3.45,1004.13,18.31,12.5,49.8,-12.39,-7.02,2.69,0,0.02,0.68,1.45,-3.5,5.25
16372600,10,31.914001,-98.600166,1487.86,148.76,3.45,1004.13,18.31,12.5,49.8,-12.39,-6.84,2.44,0.05,-0.03,0.68,1.47,-3.48,5.23
16372700,10,31.913993,-98.600151,1485.56,148.38,3.19,1004.13,18.31,9.5,49.8,-12.39,-6.77,2.75,0.03,0,0.61,1.43,-3.48,5.23
16372700,10,31.913993,-98.600151,1485.56,148.38,3.19,1004.29,18.25,12.5,49.3,-12.45,-6.96,2.62,0.02,0.01,0.61,1.42,-3.42,5.22
16372800,10,31.913986,-98.600135,1485.56,150.22,3.15,1004.29,18.25,12.5,49.7,-12.57,-7.02,2.93,-0.01,0.02,0.71,1.4,-3.42,5.21
16372900,10,31.91398,-98.60012,1484.25,145.46,3.06,1004.29,18.31,12.5,49.7,-12.39,-7.02,2.69,0.01,-0.03,0.55,1.4,-3.37,5.2
16372900,10,31.91398,-98.60012,1484.25,145.46,3.06,1004.53,18.25,12.25,49.7,-12.39,-6.96,2.56,0,-0.03,0.56,1.38,-3.35,5.2
16373000,10,31.913972,-98.600112,1486.88,145.46,3.06,1004.13,18.31,12.25,49.3,-12.45,-7.14,2.56,-0.02,-0.07,0.7,1.38,-3.38,5.21
16373100,10,31.913969,-98.600097,1489.5,145.46,3.06,1004.29,18.31,12.25,49.3,-12.45,-7.02,2.38,0.02,0.05,0.65,1.37,-3.36,5.21
16373200,10,31.913965,-98.60009,1492.45,143.89,1.51,1004.29,18.25,12.25,49.3,-12.45,-6.77,2.5,0.01,0.02,0.64,1.37,-3.29,5.21
16373300,10,31.913963,-98.600082,1495.08,143.89,1.51,1004.13,18.25,12.25,49.3,-12.21,-6.71,2.44,0,0,0.6,1.4,-3.13,5.19
16373300,10,31.913963,-98.600082,1495.08,143.89,1.51,1004.29,18.25,12.25,49.3,-12.39,-6.96,2.69,0,0.06,0.59,1.5,-3.11,5.17
16373400,10,31.913965,-98.600074,1495.08,131.44,0.84,1004.13,18.25,12.25,49.7,-12.33,-6.96,2.38,0.04,0.1,0.64,1.59,-3.11,5.16
16373500,10,31.91397,-98.600074,1498.36,131.44,0.51,1004.13,18.25,12.25,49.8,-12.33,-6.84,2.38,0,-0.03,0.67,1.59,-3.07,5.18
16373500,10,31.91397,-98.600074,1498.36,131.44,0.51,1004.13,18.31,12.25,49.8,-12.15,-6.84,2.93,0.01,0.02,0.64,1.59,-3.05,5.17
16373600,10,31.91397,-98.600074,1499.34,131.44,0.38,1004.13,18.25,12.25,49.8,-12.02,-6.71,2.44,-0.05,0.02,0.66,1.57,-3.07,5.17
16373700,10,31.91397,-98.600074,1499.34,131.44,0.38,1004.13,18.31,12.25,49.2,-12.45,-7.02,2.38,0,-0.03,0.62,1.51,-3.09,5.17
16373800,10,31.913967,-98.600067,1500,131.44,0.45,1004.13,18.31,12.25,49.7,-12.39,-7.2,2.62,0.04,-0.05,0.68,1.52,-3.08,5.18
16373900,10,31.913967,-98.600067,1500,131.44,0.45,1004.13,18.25,12.25,49.7,-12.15,-7.02,2.56,-0.05,-0.05,0.64,1.49,-3.05,5.19
16373900,10,31.913967,-98.600067,1500,131.44,0.45,1004.29,18.31,12.25,49.4,-12.51,-6.96,2.81,-0.02,-0.03,0.67,1.47,-3.1,5.2
16374000,10,31.913965,-98.600074,1500,131.44,0.18,1004.29,18.25,12.25,49.7,-12.27,-6.84,2.62,-0.02,-0.01,0.65,1.44,-3.12,5.19
16374100,10,31.913965,-98.600074,1500,131.44,0.18,1004.29,18.31,12.25,49.7,-12.63,-6.96,2.32,0.06,-0.21,0.63,1.42,-3.1,5.19
16374200,10,31.913963,-98.600074,1500,131.44,0.05,1004.29,18.31,12.25,49.4,-12.27,-7.2,2.38,0,-0.09,0.62,1.37,-3.17,5.21
16374200,10,31.913963,-98.600074,1500,131.44,0.15,1004.29,18.25,12.25,49.4,-12.45,-6.96,2.5,-0.11,-0.06,0.58,1.35,-3.17,5.2
16374300,10,31.913963,-98.600074,1500,131.44,0.02,1004.29,18.25,12,49.3,-12.33,-6.84,2.44,-0.02,-0.06,0.68,1.38,-3.2,5.18
16374400,10,31.913963,-98.600074,1500,131.44,0.01,1004.29,18.31,12.25,49.7,-12.39,-6.65,2.62,0,0,0.69,1.39,-3.22,5.18
16374500,10,31.913963,-98.600074,1500,131.44,0.01,1004.13,18.25,12,49.7,-12.45,-6.59,2.56,0,0.05,0.63,1.39,-3.21,5.17
16374500,10,31.913963,-98.600074,1500,131.44,0.01,1004.29,18.31,12,49.3,-12.45,-6.96,2.38,-0.02,-0.01,0.65,1.36,-3.24,5.2
16374600,10,31.913963,-98.600074,1500,131.44,0.01,1004.29,18.31,12.25,49.3,-12.15,-7.14,2.62,-0.01,-0.01,0.65,1.38,-3.21,5.19
16374700,10,31.913963,-98.600074,1500,131.44,0,1004.29,18.31,12,49.5,-12.15,-7.02,2.14,-0.01,0,0.65,1.37,-3.23,5.19
16374800,10,31.913963,-98.600074,1500,131.44,0,1004.29,18.25,12,49.5,-12.33,-7.02,2.75,0,0,0.65,1.38,-3.21,5.18
16374800,10,31.913963,-98.600074,1500,131.44,0,1004.29,18.31,12,49.3,-12.45,-6.77,2.5,-0.02,0,0.65,1.37,-3.2,5.18
16374900,10,31.913963,-98.600074,1500,131.44,0,1004.29,18.31,12.25,49.7,-12.51,-6.84,2.56,-0.02,-0.01,0.66,1.37,-3.22,5.19
16375000,9,31.913963,-98.600074,1500,131.44,0,1004.53,18.31,12.25,49.8,-12.27,-7.2,2.38,-0.01,0,0.65,1.37,-3.23,5.19
16375000,9,31.913963,-98.600074,1500,131.44,0,1004.29,18.31,12.25,49.8,-12.33,-6.71,2.44,0.12,-0.01,0.66,1.38,-3.2,5.18
16375100,9,31.913963,-98.600074,1500,131.44,0,1004.29,18.31,12.25,49.8,-12.39,-7.02,2.44,0.01,-0.12,0.66,1.39,-3.22,5.17
16375200,10,31.913963,-98.600074,1500,131.44,0,1004.29,18.31,12.25,49.6,-12.21,-6.96,2.44,0,0.01,0.64,1.38,-3.23,5.18
16375300,10,31.913963,-98.600074,1499.67,131.44,0,1004.13,18.25,12.25,50.1,-12.33,-6.9,2.87,0,0.02,0.66,1.38,-3.23,5.19
16375400,10,31.913963,-98.600074,1499.67,131.44,0,1004.29,18.31,12.25,50.1,-12.63,-6.71,2.5,0.04,0,0.64,1.39,-3.21,5.18
16375400,10,31.913963,-98.600074,1499.67,131.44,0,1004.29,18.31,12.25,49.7,-12.39,-7.02,2.56,0.06,-0.06,0.68,1.4,-3.31,5.18
16375500,10,31.913963,-98.600074,1499.67,131.44,0,1004.29,18.31,12.25,50.1,-12.63,-6.96,2.69,0,0.01,0.65,1.42,-3.41,5.21
16375600,10,31.913972,-98.600067,1492.78,131.44,0,1004.13,18.31,12.25,50.1,-12.27,-6.9,2.62,-0.02,-0.05,0.63,1.5,-3.48,5.2
16375700,10,31.913978,-98.600067,1487.53,131.44,0.84,1004.13,18.31,12.25,49.6,-12.51,-6.84,2.5,-0.01,0.05,0.65,1.55,-3.54,5.21
16375700,10,31.913978,-98.600067,1487.53,131.44,0.58,1004.13,18.31,12.25,49.6,-12.39,-7.08,2.56,-0.03,0.02,0.65,1.54,-3.53,5.22
16375800,10,31.913978,-98.600059,1487.53,131.44,0.07,1004.13,18.25,12.25,49.8,-12.21,-6.84,2.62,-0.03,0.04,0.67,1.55,-3.56,5.23
16375900,10,31.913978,-98.600059,1487.53,131.44,0.02,1004.29,18.31,12.25,50.3,-12.27,-6.96,2.75,-0.04,0,0.65,1.53,-3.53,5.22
16375900,10,31.913978,-98.600059,1487.53,131.44,0.02,1004.13,18.31,12.25,50.3,-12.45,-6.84,2.62,-0.04,0.01,0.66,1.54,-3.52,5.22
16380000,10,31.913978,-98.600059,1487.2,131.44,0.02,1004.13,18.31,12.25,50,-12.33,-7.14,2.62,-0.06,0.05,0.67,1.54,-3.56,5.23
16380100,10,31.913978,-98.600059,1487.2,131.44,0.02,1004.13,18.31,12.25,50,-12.15,-6.59,2.44,-0.03,0.04,0.67,1.56,-3.53,5.24
16380200,10,31.913978,-98.600059,1486.88,131.44,0,1004.29,18.31,12.5,50,-12.08,-6.65,2.5,-0.04,0.03,0.65,1.55,-3.56,5.23
16380300,10,31.913978,-98.600059,1486.55,131.44,0,1004.13,18.31,12.5,50,-12.39,-6.65,2.44,-0.03,0.02,0.66,1.56,-3.53,5.23
16380300,10,31.913978,-98.600059,1486.55,131.44,0,1004.29,18.31,12.5,50,-12.27,-6.77,2.75,-0.02,0.04,0.68,1.57,-3.53,5.23
16380400,10,31.913978,-98.600059,1486.55,131.44,0,1004.53,18.31,12.5,50.2,-12.33,-6.84,2.62,-0.04,0.02,0.66,1.56,-3.55,5.23
16380500,10,31.913978,-98.600059,1485.89,131.44,0,1004.29,18.31,12.5,50.6,-12.27,-7.02,2.87,-0.04,0.02,0.66,1.57,-3.55,5.23
16380500,10,31.913978,-98.600059,1485.89,131.44,0,1004.53,18.31,12.5,50.6,-12.57,-6.77,2.69,-0.04,0.02,0.65,1.56,-3.53,5.22
16380600,10,31.913978,-98.600059,1485.89,131.44,0,1004.29,18.31,12.75,50.6,-12.39,-6.9,2.44,-0.04,0.02,0.67,1.56,-3.52,5.22
16380700,10,31.913978,-98.600059,1485.56,131.44,0,1004.29,18.31,12.5,50.3,-12.27,-7.02,2.44,-0.04,0.02,0.66,1.57,-3.55,5.23
16380800,10,31.913978,-98.600059,1485.24,131.44,0,1004.53,18.31,12.75,50.6,-12.27,-6.77,2.56,-0.04,0.03,0.65,1.56,-3.55,5.24
16380900,10,31.913978,-98.600059,1485.24,131.44,0,1004.29,18.31,12.75,50.6,-12.21,-6.71,2.32,-0.04,0.02,0.65,1.56,-3.54,5.22
16380900,10,31.913978,-98.600059,1485.24,131.44,0,1004.13,18.31,12.75,50.1,-12.39,-7.02,2.75,-0.03,0.03,0.64,1.57,-3.55,5.23
16381000,10,31.913978,-98.600059,1484.91,131.44,0,1004.29,18.31,12.75,50.6,-12.45,-6.96,2.26,-0.05,0.02,0.66,1.57,-3.55,5.24
16381100,10,31.913978,-98.600059,1484.58,131.44,0,1004.29,18.31,12.75,50.6,-12.51,-7.14,2.38,-0.02,0.01,0.64,1.57,-3.52,5.23
16381200,10,31.91398,-98.600059,1484.25,131.44,0,1004.13,18.31,12.75,50.3,-12.39,-6.84,2.5,-0.09,0.05,0.65,1.54,-3.57,5.25
16381200,10,31.91398,-98.600059,1484.25,131.44,0,1004.13,18.31,12.75,50.3,-12.39,-6.9,2.56,-0.08,0.05,0.7,1.55,-3.56,5.24
16381300,10,31.91398,-98.600059,1484.25,131.44,0,1004.13,18.31,12.75,50.2,-12.57,-6.71,2.32,-0.02,0.02,0.67,1.57,-3.53,5.22
16381400,10,31.91398,-98.600059,1483.92,131.44,0,1004.13,18.31,12.75,50.8,-12.15,-6.9,2.81,-0.05,0,0.63,1.56,-3.54,5.23
16381400,10,31.91398,-98.600059,1483.92,131.44,0,1004.29,18.37,12.5,50.8,-12.57,-7.02,2.5,-0.01,0,0.63,1.56,-3.54,5.23
16381500,10,31.91398,-98.600059,1483.6,131.44,0,1004.29,18.31,12.5,50.4,-12.51,-6.96,2.32,-0.05,0.05,0.7,1.55,-3.58,5.25
16381600,10,31.91398,-98.600059,1483.27,131.44,0,1004.29,18.31,12.5,50.4,-12.33,-6.84,2.69,-0.01,0.05,0.64,1.57,-3.55,5.23
16381700,10,31.913978,-98.600059,1482.94,131.44,0,1004.29,18.31,12.5,50.3,-12.33,-7.02,2.26,-0.05,0.02,0.61,1.59,-3.52,5.22
16381800,10,31.913978,-98.600059,1482.94,131.44,0,1004.13,18.31,12.5,50.3,-12.15,-6.9,2.38,0,-0.07,0.6,1.58,-3.49,5.2
16381800,10,31.913978,-98.600059,1482.94,131.44,0,1004.29,18.31,12.75,50.5,-12.45,-7.02,2.44,-0.02,0.04,0.69,1.6,-3.53,5.22
16381900,10,31.913978,-98.600059,1482.94,131.44,0,1004.13,18.25,12.5,50.9,-12.02,-6.47,2.75,-0.62,0.99,0.3,1.61,-3.53,5.24
16382000,10,31.913978,-98.600059,1481.96,131.44,0,1004.13,18.31,12.75,51,-12.51,-6.29,2.44,0.13,-0.07,0.72,1.55,-3.44,5.34
16382000,10,31.913978,-98.600059,1481.96,131.44,0,1004.13,18.31,12.75,51,-12.21,-7.08,2.44,0.07,-0.04,0.69,1.55,-3.41,5.31
16382100,10,31.913976,-98.600059,1480.97,131.44,0,1004.13,18.31,12.75,51,-12.57,-7.02,2.5,0.02,0.03,0.66,1.55,-3.41,5.32
16382200,10,31.913974,-98.600059,1480.31,131.44,0,1004.29,18.31,12.5,50.6,-12.33,-7.2,2.56,0.01,0.06,0.67,1.56,-3.43,5.33
16382300,10,31.91394,-98.600051,1445.87,131.44,0.16,1004.53,18.31,12.75,51,-12.45,-7.14,2.56,-0.02,-0.05,0.68,1.62,-3.43,5.32
16382400,10,31.91394,-98.600051,1445.54,131.44,0.16,1004.29,18.31,12.75,51,-12.39,-7.02,2.5,-0.04,0.04,0.67,1.65,-3.4,5.31
16382400,10,31.91394,-98.600051,1445.54,131.44,0.16,1004.29,18.31,12.75,51,-12.33,-7.14,2.5,-0.04,0.03,0.65,1.66,-3.39,5.32
16382500,10,31.91394,-98.600051,1445.54,131.44,0.01,1004.29,18.31,12.75,50.6,-12.39,-6.77,2.87,-0.04,0,0.66,1.65,-3.42,5.32
16382600,10,31.91394,-98.600051,1445.54,131.44,0.01,1004.29,18.31,12.75,50.6,-12.27,-7.02,2.62,-0.02,0,0.62,1.68,-3.37,5.31
16382700,10,31.91394,-98.600051,1445.21,131.44,0,1004.29,18.31,5.75,50.6,-12.57,-6.96,2.32,-0.01,0.02,0.66,1.7,-3.4,5.34
16382700,10,31.91394,-98.600051,1445.21,131.44,0,1004.29,18.31,12.75,50.6,-12.57,-6.84,2.56,-0.02,0.03,0.68,1.69,-3.38,5.32
16382800,10,31.91394,-98.600051,1445.21,131.44,0,1004.29,18.31,12.75,50.5,-12.27,-6.84,2.26,-0.03,0.03,0.65,1.68,-3.4,5.33
16382900,10,31.91394,-98.600051,1445.21,131.44,0,1004.29,18.31,12.75,51.1,-12.45,-7.26,2.32,-0.04,0.03,0.67,1.69,-3.4,5.33
16383000,10,31.91394,-98.600051,1445.21,131.44,0,1004.29,18.31,12.75,51.1,-12.27,-6.47,2.44,-0.03,0.05,0.66,1.68,-3.38,5.31
16383000,10,31.91394,-98.600051,1445.21,131.44,0,1004.29,18.31,12.75,51.1,-12.33,-6.9,2.81,-0.04,0.05,0.67,1.68,-3.38,5.31
16383100,10,31.91394,-98.600051,1445.21,131.44,0,1004.29,18.31,12.75,50.7,-12.27,-6.65,2.56,-0.03,0.06,0.66,1.68,-3.41,5.33
16383200,10,31.91394,-98.600051,1445.21,131.44,0,1004.53,18.37,12.75,51.3,-12.57,-6.9,2.56,-0.05,0.04,0.66,1.68,-3.41,5.33
16383300,10,31.91394,-98.600051,1444.88,131.44,0,1004.29,18.31,12.75,51.3,-12.45,-6.77,2.5,-0.07,0.05,0.67,1.68,-3.37,5.32
16383300,10,31.91394,-98.600051,1444.88,131.44,0,1004.29,18.31,12.75,51.3,-12.27,-6.84,2.93,-0.04,0.04,0.65,1.7,-3.37,5.32
16383400,10,31.91394,-98.600051,1444.88,131.44,0,1004.29,18.31,12.75,51,-12.45,-6.59,2.81,-0.05,0.06,0.65,1.7,-3.39,5.33
16383500,10,31.91394,-98.600051,1444.55,131.44,0,1004.13,18.31,12.75,51.4,-11.96,-6.65,2.62,-0.07,0.06,0.65,1.68,-3.39,5.33
16383500,10,31.91394,-98.600051,1444.55,131.44,0,1004.13,18.31,12.75,51.4,-12.57,-6.96,2.81,-0.05,0.04,0.65,1.68,-3.37,5.31
16383600,10,31.91394,-98.600051,1444.55,131.44,0,1004.29,18.31,12.75,51.4,-12.21,-7.02,2.5,-0.07,0.05,0.65,1.68,-3.37,5.31
16383700,10,31.91394,-98.600051,1444.23,131.44,0,1004.53,18.31,12.75,51,-12.45,-6.9,2.5,-0.06,0.02,0.66,1.68,-3.4,5.32
16383800,10,31.91394,-98.600051,1444.23,131.44,0,1004.13,18.31,12.5,51.4,-12.45,-6.9,2.75,-0.05,0.06,0.66,1.69,-3.41,5.32
16383900,10,31.91394,-98.600051,1443.9,131.44,0,1004.13,18.31,12.5,51.4,-12.39,-6.96,2.75,-0.05,0.06,0.65,1.69,-3.37,5.32
16383900,10,31.91394,-98.600051,1443.9,131.44,0,1004.29,18.31,12.5,51,-12.45,-6.9,2.56,-0.04,0.04,0.64,1.69,-3.38,5.31
16384000,10,31.91394,-98.600051,1443.9,131.44,0,1004.13,18.31,12.5,51.4,-12.08,-6.53,2.69,-0.04,0.06,0.65,1.7,-3.39,5.32
16384100,10,31.913938,-98.600051,1443.57,131.44,0,1004.13,18.31,12.5,51.4,-12.39,-7.26,2.5,-0.1,0,0.74,1.7,-3.38,5.32
16384200,10,31.913938,-98.600051,1443.57,131.44,0,1004.13,18.31,12.5,51,-12.39,-6.96,2.69,-0.05,0.08,0.68,1.69,-3.41,5.32
16384200,10,31.913938,-98.600051,1443.57,131.44,0,1004.29,18.31,12.5,51,-12.45,-7.02,2.44,-0.04,0.07,0.65,1.71,-3.38,5.32
16384300,10,31.913938,-98.600051,1443.24,131.44,0,1004.13,18.31,12.5,51,-12.21,-6.77,2.44,-0.08,0.12,0.63,1.72,-3.41,5.31
16384400,10,31.913938,-98.600051,1443.24,131.44,0,1004.13,18.31,12.5,51.4,-12.39,-6.77,2.87,-0.01,0.07,0.72,1.75,-3.4,5.31
16384500,10,31.913938,-98.600051,1443.24,131.44,0,1004.13,18.37,12.5,51.4,-12.21,-6.71,2.38,-0.04,0.08,0.67,1.72,-3.37,5.29
16384500,10,31.913938,-98.600051,1443.24,131.44,0,1004.13,18.31,12.75,50.9,-11.96,-6.71,2.56,-0.06,0.07,0.67,1.72,-3.38,5.29
16384600,10,31.91394,-98.600051,1443.24,131.44,0.1,1004.13,18.31,12.75,51.4,-12.39,-7.14,2.81,-0.01,0.07,0.61,1.76,-3.41,5.31
16384700,10,31.91394,-98.600051,1443.24,131.44,0,1004.29,18.37,12.75,51.5,-12.08,-6.77,2.69,0.04,0.14,0.68,1.8,-3.4,5.34
16384800,10,31.913936,-98.600044,1441.6,131.44,0.07,1004.13,18.31,12.75,51.5,-12.27,-7.02,2.81,0.07,0.13,0.67,1.81,-3.39,5.35
16384800,10,31.913936,-98.600044,1441.6,131.44,0.07,1004.13,18.31,12.75,51.5,-12.33,-7.02,2.5,0.02,0.06,0.65,1.78,-3.37,5.31
16384900,10,31.913936,-98.600044,1441.6,131.44,0.07,1004.13,18.31,12.75,51.1,-12.21,-6.96,2.62,0,0.26,0.72,1.78,-3.38,5.33
16385000,10,31.913936,-98.600044,1441.6,131.44,0,1004.13,18.37,13,51.5,-12.57,-6.59,2.62,0.01,0.1,0.69,1.76,-3.41,5.34
16385100,10,31.913936,-98.600044,1441.6,131.44,0,1004.13,18.31,13,51.5,-12.39,-6.9,2.44,0.02,0.05,0.71,1.74,-3.36,5.3
16385200,10,31.913936,-98.600044,1441.6,131.44,0,1004.13,18.31,13,51.5,-12.39,-6.71,2.87,-0.07,0.1,0.82,1.74,-3.35,5.29
16385200,10,31.913936,-98.600044,1441.6,131.44,0,1004.13,18.31,13,51.2,-12.39,-7.02,2.56,0.1,0.15,0.52,1.74,-3.37,5.3
16385300,10,31.913934,-98.600044,1441.27,131.44,0.17,1004.29,18.31,13,51.6,-12.39,-7.02,2.5,-0.11,0.06,0.61,1.73,-3.35,5.28
16385400,10,31.913934,-98.600044,1441.27,131.44,0.17,1004.13,18.31,13,51.6,-12.15,-6.9,2.93,-0.05,-0.08,0.7,1.73,-3.34,5.27
16385400,10,31.913934,-98.600044,1441.27,131.44,0,1004.53,18.37,13,51.6,-12.57,-6.71,2.69,0,0.05,0.67,1.74,-3.37,5.29
16385500,10,31.913934,-98.600044,1441.27,131.44,0,1004.13,18.37,13,51.3,-12.63,-6.9,2.56,-0.02,0.06,0.66,1.74,-3.39,5.3
16385600,10,31.913934,-98.600044,1441.27,131.44,0,1004.29,18.37,12.75,51.3,-12.57,-7.08,2.5,-0.01,0.03,0.68,1.73,-3.38,5.3
16385700,10,31.913934,-98.600044,1441.27,131.44,0,1004.29,18.31,12.75,51.1,-12.33,-6.77,2.44,-0.02,0.05,0.66,1.75,-3.4,5.32
16385700,10,31.913934,-98.600044,1441.27,131.44,0,1004.13,18.31,12.75,51.1,-12.39,-6.77,2.62,-0.01,0.06,0.67,1.75,-3.38,5.3
16385800,10,31.913934,-98.600044,1441.27,131.44,0,1004.13,18.31,12.75,51.3,-12.45,-6.9,2.44,-0.01,0.05,0.67,1.74,-3.39,5.3
16385900,10,31.913934,-98.600044,1441.27,131.44,0,1004.29,18.31,12.75,51.7,-12.45,-6.96,2.32,-0.01,0.06,0.68,1.73,-3.4,5.3
16390000,10,31.913934,-98.600044,1440.94,131.44,0,1004.13,18.31,12.75,51.7,-12.45,-6.77,2.69,-0.02,0.06,0.66,1.73,-3.38,5.3
16390000,10,31.913934,-98.600044,1440.94,131.44,0,1004.29,18.37,12.75,51.1,-12.51,-7.08,2.62,-0.02,0.04,0.66,1.74,-3.4,5.3
16390100,10,31.913934,-98.600044,1440.94,131.44,0,1004.29,18.31,12.75,51.8,-12.51,-7.02,2.5,-0.03,0.04,0.65,1.73,-3.39,5.3
16390200,10,31.913934,-98.600044,1440.94,131.44,0,1004.13,18.37,12.75,51.7,-12.45,-6.96,2.56,-0.02,0.04,0.65,1.73,-3.39,5.3
16390300,10,31.913934,-98.600044,1440.94,131.44,0,1004.13,18.37,12.75,51.7,-12.27,-6.96,2.87,-0.04,0.04,0.64,1.72,-3.37,5.29
16390300,10,31.913934,-98.600044,1440.94,131.44,0,1004.13,18.37,12.75,51.7,-12.15,-6.47,2.69,-0.01,0.03,0.64,1.73,-3.37,5.29
16390400,10,31.913934,-98.600044,1440.94,131.44,0,1004.13,18.31,12.75,51.1,-12.21,-6.9,2.81,-0.02,0.05,0.67,1.73,-3.38,5.3
16390500,10,31.913936,-98.600044,1440.62,131.44,0,1004.29,18.37,12.75,51.7,-12.45,-7.02,2.62,-0.02,0.04,0.65,1.74,-3.37,5.3
16390500,10,31.913936,-98.600044,1440.62,131.44,0,1004.69,18.31,12.5,51.7,-12.27,-6.84,2.56,-0.02,0.03,0.66,1.74,-3.35,5.29
16390600,10,31.913936,-98.600036,1440.62,131.44,0,1004.29,18.37,12.5,51.7,-12.15,-7.02,2.38,-0.04,0.03,0.64,1.74,-3.36,5.28
16390700,10,31.913936,-98.600036,1440.62,131.44,0,1004.53,18.37,12.75,51.4,-12.21,-6.96,2.56,-0.01,0.05,0.67,1.73,-3.37,5.28
16390800,10,31.913936,-98.600036,1440.62,131.44,0,1004.29,18.37,12.75,51.8,-12.45,-7.08,2.5,-0.05,0.05,0.65,1.73,-3.38,5.29
16390900,10,31.913936,-98.600036,1440.62,131.44,0,1004.29,18.31,12.75,51.8,-12.45,-7.02,2.56,-0.06,0.03,0.67,1.74,-3.35,5.29
16390900,10,31.913936,-98.600036,1440.62,131.44,0,1004.53,18.37,12.75,51.8,-12.33,-6.84,2.81,-0.04,0.07,0.68,1.74,-3.35,5.29
16391000,10,31.913936,-98.600036,1440.62,131.44,0,1004.53,18.31,12.75,51.4,-12.15,-6.84,2.62,-0.11,0.06,0.7,1.72,-3.36,5.29
16391100,10,31.913936,-98.600036,1440.62,131.44,0,1004.29,18.31,12.75,51.4,-12.57,-7.02,2.56,0,0.04,0.68,1.75,-3.35,5.29
16391200,10,31.913936,-98.600036,1440.62,131.44,0,1004.29,18.37,13,51.5,-12.21,-6.41,2.44,-0.17,-0.01,0.53,1.67,-3.37,5.28
16391200,10,31.913936,-98.600036,1440.62,131.44,0,1004.29,18.37,12.75,51.5,-12.33,-6.9,2.5,-0.08,0.04,0.66,1.68,-3.36,5.26
16391300,9,31.913936,-98.600036,1440.62,131.44,0,1004.29,18.31,12.75,51.3,-12.27,-7.08,2.5,0,0.07,0.71,1.71,-3.37,5.29
16391400,9,31.913944,-98.600028,1430.77,131.44,0.07,1004.29,18.31,12.75,51.9,-12.39,-6.71,2.62,-0.09,0,0.62,1.7,-3.39,5.29
16391500,9,31.913944,-98.600028,1430.77,131.44,0.07,1004.53,18.37,12.75,51.9,-12.39,-6.9,2.81,-0.01,0.16,0.67,1.71,-3.41,5.31
16391500,9,31.913944,-98.600028,1430.77,131.44,0.07,1004.53,18.37,12.75,51.9,-12.57,-6.47,2.2,0.02,0,0.64,1.68,-3.44,5.31
16391600,9,31.913944,-98.600028,1430.77,131.44,0,1004.29,18.31,12.75,51.9,-12.57,-6.9,2.44,0.01,0.04,0.68,1.7,-3.45,5.3
16391700,9,31.913944,-98.600028,1430.77,131.44,0,1004.13,18.31,12.75,51.6,-12.33,-6.65,2.75,-0.07,0.15,0.69,1.67,-3.48,5.31
16391800,9,31.913948,-98.600028,1429.46,131.44,0.12,1004.29,18.37,13,52,-12.33,-7.02,2.38,0.09,0.44,0.85,1.71,-3.48,5.32
16391800,9,31.913948,-98.600028,1429.46,131.44,0.12,1004.29,18.37,13,52,-12.27,-6.53,2.62,0.06,0.16,0.69,1.73,-3.45,5.32
16391900,9,31.913948,-98.600028,1428.48,131.44,0.12,1004.29,18.37,13,51.6,-12.27,-6.9,2.87,-0.05,0.08,0.67,1.71,-3.44,5.3
16392000,10,31.913951,-98.600028,1426.84,131.44,0.49,1004.29,18.37,13,52,-12.33,-6.9,2.69,0.1,0.16,0.56,1.75,-3.41,5.3
16392100,10,31.913953,-98.600021,1426.18,131.44,0.49,1004.29,18.37,13,52,-12.21,-6.9,2.62,-0.07,0.01,0.55,1.75,-3.4,5.29
16392200,10,31.913953,-98.600021,1425.53,131.44,0.18,1004.13,18.31,13,52,-12.21,-6.9,2.56,-0.02,0.02,0.65,1.72,-3.36,5.3
16392200,10,31.913953,-98.600021,1425.53,131.44,0.18,1004.13,18.31,13,51.6,-12.08,-6.84,2.62,-0.02,0.04,0.65,1.73,-3.4,5.31
16392300,10,31.913953,-98.600021,1425.53,131.44,0.02,1004.13,18.37,13,52,-12.51,-6.9,2.5,-0.01,0.03,0.67,1.72,-3.41,5.31
16392400,10,31.913953,-98.600021,1425.53,131.44,0.02,1004.13,18.37,13,52,-12.21,-6.84,2.62,-0.02,0.03,0.65,1.72,-3.41,5.31
16392400,10,31.913953,-98.600021,1425.53,131.44,0,1004.13,18.31,13,52,-12.33,-6.77,2.62,-0.02,0.03,0.65,1.72,-3.39,5.31
16392500,10,31.913953,-98.600021,1425.53,131.44,0,1004.13,18.31,13,51.6,-12.33,-6.65,2.44,-0.01,0.03,0.66,1.72,-3.39,5.31
16392600,10,31.913953,-98.600021,1425.53,131.44,0,1004.29,18.31,13,51.6,-12.27,-6.71,2.81,-0.03,0.03,0.66,1.72,-3.38,5.3
16392700,10,31.913955,-98.600021,1425.2,131.44,0.12,1004.29,18.31,13.25,51.6,-12.45,-6.71,2.93,-0.06,0.05,0.63,1.72,-3.4,5.31
16392700,10,31.913955,-98.600021,1425.2,131.44,0.12,1004.13,18.31,13.25,51.6,-12.15,-7.08,2.69,0,0.04,0.72,1.74,-3.36,5.3
16392800,9,31.913955,-98.600021,1425.2,131.44,0.12,1004.13,18.37,13.25,51.5,-12.27,-7.02,2.32,-0.01,0.03,0.68,1.74,-3.37,5.31
16392900,10,31.913957,-98.600021,1424.87,131.44,0.29,1004.13,18.37,13.25,52,-12.27,-6.9,2.56,-0.02,0.03,0.67,1.73,-3.38,5.3
16393000,10,31.913957,-98.600021,1424.87,131.44,0.29,1004.13,18.37,13.25,52,-12.45,-6.96,2.69,-0.02,0.02,0.66,1.73,-3.36,5.29
16393000,10,31.913957,-98.600021,1424.87,131.44,0.29,1004.13,18.37,13,51.6,-12.27,-6.9,2.56,-0.02,0.02,0.64,1.73,-3.38,5.3
16393100,10,31.913955,-98.600021,1424.87,131.44,0.14,1004.13,18.37,13,52,-12.39,-6.84,2.44,-0.01,0.02,0.64,1.73,-3.38,5.29
16393200,10,31.913955,-98.600021,1424.21,131.44,0.01,1004.13,18.37,6.75,52,-12.27,-6.96,2.5,-0.06,-0.01,0.55,1.73,-3.36,5.29
16393300,10,31.913955,-98.600021,1424.21,131.44,0.01,1004.13,18.37,13,52,-12.27,-6.65,2.56,-0.03,0,0.65,1.76,-3.37,5.24
16393300,10,31.913955,-98.600021,1424.21,131.44,0,1004.13,18.37,13,52,-12.57,-6.77,2.62,0,-0.09,0.7,1.77,-3.38,5.24
16393400,10,31.913955,-98.600021,1424.21,131.44,0,1004.13,18.37,13,51.7,-12.33,-7.2,2.62,-0.12,0.59,0.05,1.75,-3.39,5.24
16393500,10,31.913955,-98.600021,1424.21,131.44,0,1004.13,18.37,13,52.1,-12.51,-6.96,2.38,0.06,0.15,0.86,1.8,-3.4,5.27
16393500,10,31.913955,-98.600021,1424.21,131.44,0,1004.13,18.37,13.25,52.1,-12.51,-6.77,2.62,0.03,0.01,0.64,1.8,-3.39,5.26
16393600,10,31.913955,-98.600021,1424.21,131.44,0,1004.29,18.37,13,52.1,-12.39,-7.02,2.69,0.02,0,0.68,1.78,-3.39,5.26
16393700,10,31.913955,-98.600021,1424.21,131.44,0,1004.13,18.37,13,51.7,-12.39,-6.84,2.56,0.01,0.07,0.72,1.69,-3.46,5.26
16393800,10,31.913957,-98.600021,1424.54,131.44,0.1,1004.13,18.37,13.25,52.1,-12.63,-7.08,2.75,-0.06,-0.04,0.64,1.39,-3.44,5.28
16393900,10,31.913955,-98.600013,1421.92,131.44,0.1,1004.13,18.37,13.25,52.1,-12.45,-6.9,2.56,-0.08,0.02,0.62,1.35,-3.34,5.24
16393900,10,31.913955,-98.600013,1421.92,131.44,0.1,1004.13,18.31,13.5,51.8,-12.27,-6.84,2.62,-0.04,-0.1,0.62,1.37,-3.35,5.24
16394000,10,31.913949,-98.600013,1421.92,131.44,0.12,1004.29,18.37,13.5,52.2,-12.39,-7.14,2.75,-0.03,0.02,0.7,1.38,-3.42,5.26
16394100,10,31.913944,-98.600013,1416.99,131.44,0.12,1004.29,18.31,13.75,52.2,-12.45,-6.77,2.99,-0.01,0.01,0.66,1.39,-3.36,5.24
16394200,10,31.913942,-98.600006,1416.01,131.44,0.2,1004.29,18.31,13.75,51.8,-12.45,-6.84,2.44,-0.01,0.02,0.67,1.38,-3.4,5.25
16394200,10,31.913942,-98.600006,1416.01,131.44,0.2,1004.29,18.37,13.75,51.8,-12.51,-6.77,2.62,-0.03,0,0.67,1.38,-3.38,5.23
16394300,10,31.91394,-98.600006,1416.01,131.44,0.02,1004.29,18.37,13.5,51.8,-12.45,-6.96,2.5,-0.03,0.02,0.66,1.36,-3.4,5.26
16394400,10,31.913938,-98.600006,1414.7,131.44,0.13,1004.29,18.37,13.5,52.2,-12.33,-7.02,2.5,-0.02,0,0.66,1.38,-3.4,5.26
16394500,10,31.913938,-98.600006,1414.7,131.44,0.13,1004.29,18.37,13.5,52.2,-12.27,-6.59,3.05,-0.04,0.01,0.66,1.37,-3.39,5.25
16394500,10,31.913938,-98.600006,1414.7,131.44,0.13,1004.29,18.37,13.5,51.8,-12.57,-6.9,2.32,-0.05,0.02,0.66,1.37,-3.41,5.27
16394600,10,31.913938,-98.600006,1414.7,131.44,0.13,1004.29,18.37,13.25,51.8,-12.21,-6.59,2.62,-0.03,0,0.65,1.38,-3.38,5.25
16394700,10,31.913938,-98.600006,1414.7,131.44,0,1004.29,18.37,13.5,51.8,-12.08,-6.77,2.26,-0.03,0.01,0.66,1.37,-3.39,5.24
16394800,10,31.913938,-98.600006,1414.37,131.44,0,1004.29,18.37,13.5,51.8,-12.39,-6.9,2.56,-0.02,0,0.66,1.38,-3.37,5.24
16394800,10,31.913938,-98.600006,1414.37,131.44,0,1004.13,18.37,13.25,51.8,-12.7,-6.96,2.5,-0.03,-0.03,0.66,1.38,-3.39,5.25
16394900,10,31.913938,-98.600006,1414.37,131.44,0,1004.13,18.37,13.5,52.2,-12.27,-7.08,2.62,-0.02,0.02,0.66,1.37,-3.39,5.24
16395000,10,31.913938,-98.600006,1414.37,131.44,0,1004.29,18.37,13.5,52.2,-12.21,-6.96,2.81,-0.02,-0.01,0.66,1.39,-3.4,5.25
16395000,10,31.913938,-98.600006,1414.37,131.44,0,1004.29,18.31,13.5,52.2,-12.7,-6.84,2.5,0.07,0.1,0.63,1.4,-3.37,5.22
16395100,10,31.913936,-98.599998,1413.06,131.44,0.14,1004.29,18.37,13.5,52.2,-12.27,-6.77,2.62,0.02,-0.15,0.63,1.4,-3.38,5.24
16395200,10,31.913936,-98.599998,1413.06,131.44,0.14,1004.13,18.37,13,51.9,-12.7,-7.02,2.69,0.07,-0.01,0.61,1.45,-3.43,5.23
16395300,10,31.91393,-98.599998,1412.07,131.44,0.2,1004.53,18.37,13.5,52.3,-12.57,-6.65,2.32,0.1,-0.01,0.65,1.48,-3.41,5.2
16395400,10,31.91393,-98.599998,1412.07,131.44,0.2,1004.13,18.37,13.5,52.3,-12.08,-6.65,2.32,-0.16,0.23,0.72,1.38,-3.37,5.24
16395400,10,31.91393,-98.599998,1412.07,131.44,0.2,1004.13,18.37,13.5,51.9,-12.21,-6.96,2.62,0.02,0.01,0.5,1.43,-3.37,5.23
16395500,10,31.91393,-98.599998,1413.39,131.44,0.23,1004.29,18.37,13.5,52.3,-12.39,-6.9,2.56,-0.02,0.22,0.67,1.49,-3.5,5.16
16395600,10,31.91393,-98.599998,1413.06,131.44,0.23,1004.29,18.37,13.25,52.3,-12.7,-7.02,2.56,0.07,0.04,0.66,1.55,-3.52,5.16
16395700,10,31.913917,-98.599998,1405.18,131.44,0.74,1004.53,18.37,13.25,52.3,-12.39,-6.84,2.38,0.03,-0.08,0.68,1.51,-3.43,5.13
16395700,10,31.913917,-98.599998,1405.18,131.44,1.13,1004.53,18.37,13.25,52.3,-12.21,-6.96,2.75,0.13,-0.06,0.74,1.51,-3.42,5.11
16395800,10,31.913913,-98.599998,1405.18,42.53,1.51,1004.29,18.37,13.25,52,-12.51,-6.84,2.62,0.03,-0.17,0.65,1.47,-3.4,5.13
16395900,10,31.913917,-98.59999,1402.56,42.53,1.24,1004.29,18.37,13,52.4,-12.45,-6.84,2.69,-0.05,-0.09,0.58,1.41,-3.35,5.13
16395900,10,31.913917,-98.59999,1402.56,42.53,1.24,1004.29,18.37,12.75,52.4,-12.27,-6.77,2.44,0.03,-0.01,0.63,1.41,-3.21,5.12
16400000,10,31.913917,-98.599983,1402.56,42.53,1.24,1004.13,18.37,12.75,52,-12.33,-6.77,2.56,0.03,-0.02,0.66,1.49,-3.12,5.14
16400100,10,31.913917,-98.59999,1401.57,42.53,1.24,1004.29,18.37,12.75,52,-12.21,-7.14,2.75,-0.03,-0.04,0.65,1.49,-3.1,5.13
16400200,10,31.913917,-98.59999,1400.59,42.53,0.16,1004.29,18.37,12.5,52,-12.51,-7.08,2.93,-0.06,-0.09,0.63,1.46,-3.09,5.15
16400300,10,31.913917,-98.59999,1400.59,42.53,0.16,1004.29,18.37,12.5,52,-12.57,-6.71,2.5,0,-0.11,0.68,1.48,-3.05,5.15
16400300,10,31.913917,-98.59999,1400.59,42.53,0.16,1004.29,18.37,12.5,52,-12.08,-6.9,2.62,-0.07,-0.01,0.65,1.48,-3.12,5.14
16400400,10,31.913917,-98.599983,1401.25,42.53,0.09,1004.13,18.37,12.5,52.4,-12.21,-6.84,2.32,-0.1,-0.04,0.67,1.5,-3.09,5.15
16400500,10,31.913915,-98.599998,1405.18,42.53,0.09,1004.13,18.37,12.5,52.4,-12.39,-7.14,2.44,-0.04,-0.05,0.64,1.54,-3.09,5.16
16400500,10,31.913915,-98.599998,1405.18,42.53,0.23,1004.29,18.37,12.5,52.4,-12.15,-6.84,2.5,-0.03,-0.03,0.67,1.54,-3.07,5.13
16400600,10,31.913911,-98.599998,1408.46,42.53,0.18,1004.13,18.44,12.5,52.4,-12.45,-6.9,2.56,0,-0.05,0.66,1.56,-3.07,5.14
16400700,10,31.913911,-98.600006,1410.76,42.53,0.06,1004.13,18.37,12.5,52,-12.57,-6.71,2.56,-0.04,-0.08,0.63,1.54,-3.08,5.14
16400800,10,31.913911,-98.600006,1410.43,42.53,0.01,1004.13,18.37,12.25,52.4,-12.27,-6.84,2.69,-0.03,0,0.66,1.52,-3.09,5.14
16400800,10,31.913911,-98.600006,1410.43,42.53,0.01,1004.13,18.37,12.25,52.4,-12.39,-7.08,2.56,-0.02,-0.05,0.66,1.54,-3.07,5.13
16400900,10,31.913913,-98.600013,1412.07,42.53,0.01,1004.29,18.37,12.25,52,-12.27,-6.9,2.56,-0.04,-0.02,0.64,1.53,-3.09,5.12
16401000,10,31.913913,-98.600013,1412.07,42.53,0,1004.29,18.37,12.25,52.4,-12.45,-6.84,2.62,-0.03,-0.01,0.64,1.54,-3.1,5.13
16401100,10,31.913913,-98.600013,1412.07,42.53,0,1004.13,18.37,12.25,52.4,-12.33,-6.9,2.56,-0.04,0.02,0.65,1.51,-3.1,5.12
16401200,10,31.913913,-98.600013,1412.07,42.53,0,1004.29,18.37,12.25,52.4,-12.45,-6.71,2.5,-0.01,-0.04,0.63,1.53,-3.07,5.13
16401200,10,31.913913,-98.600013,1412.07,42.53,0,1004.13,18.31,12,52.4,-12.39,-6.77,2.56,0,-0.05,0.51,1.59,-3.06,5.13
16401300,10,31.913913,-98.600013,1412.07,42.53,0,1004.13,18.37,12.25,52.1,-12.33,-7.2,2.75,-0.04,-0.05,0.68,1.57,-3.08,5.15
16401400,10,31.913913,-98.600013,1412.07,42.53,0,1004.13,18.31,12.25,52.5,-12.45,-6.71,2.62,-0.01,-0.11,0.65,1.58,-3.07,5.16
16401400,10,31.913913,-98.600013,1412.07,42.53,0,1004.13,18.44,12.25,52.5,-12.7,-6.96,2.69,-0.02,-0.15,0.64,1.58,-3.04,5.15
16401500,10,31.913913,-98.600013,1412.07,42.53,0,1004.13,18.37,12.25,52,-12.51,-6.9,2.44,0.01,-0.17,0.64,1.61,-3.03,5.18
16401600,10,31.913913,-98.600013,1412.4,42.53,0,1003.9,18.37,12.25,52,-12.33,-6.9,2.81,0,-0.1,0.66,1.6,-3.03,5.16
16401700,10,31.913913,-98.600013,1412.4,42.53,0,1003.9,18.37,12.25,52.1,-12.7,-7.08,2.75,0.05,-0.07,0.66,1.61,-3.07,5.14
16401800,10,31.913913,-98.600013,1412.4,42.53,0,1003.9,18.37,12.25,52.1,-12.15,-6.96,2.44,0,-0.11,0.67,1.62,-3.04,5.15
16401800,10,31.913913,-98.600013,1412.4,42.53,0,1003.9,18.37,12.25,52.2,-12.15,-7.32,2.69,0.01,-0.12,0.67,1.65,-3.05,5.17
16401900,9,31.913913,-98.600013,1412.4,42.53,0,1004.13,18.31,12.25,52.6,-12.51,-6.96,2.75,0.03,-0.09,0.66,1.64,-3.06,5.17
16402000,10,31.913913,-98.600013,1412.4,42.53,0,1003.9,18.37,12.25,52.6,-12.33,-6.9,2.69,0.01,-0.09,0.66,1.63,-3.06,5.16
16402000,10,31.913913,-98.600013,1412.4,42.53,0,1004.13,18.37,12.25,52.6,-12.27,-6.96,2.93,0.03,-0.12,0.65,1.64,-3.03,5.16
16402100,10,31.913913,-98.600013,1412.4,42.53,0,1003.9,18.37,12.25,52.6,-12.45,-7.08,2.38,0.03,-0.14,0.65,1.64,-3.04,5.15
16402200,10,31.913913,-98.600013,1412.4,42.53,0,1003.9,18.37,12.25,52.3,-12.27,-6.84,2.32,0.09,-0.1,0.64,1.63,-3.08,5.15
16402300,10,31.913913,-98.600013,1412.4,42.53,0,1003.9,18.37,12.25,52.6,-12.57,-6.77,2.81,0.06,-0.06,0.59,1.65,-3.06,5.18
16402400,10,31.913913,-98.600013,1412.4,42.53,0,1003.9,18.37,12.25,52.6,-12.21,-6.65,2.38,0.18,-0.13,0.59,1.68,-3.02,5.19
16402400,10,31.913913,-98.600013,1412.4,42.53,0,1004.13,18.37,12.25,52,-12.27,-6.84,2.56,0.11,-0.11,0.67,1.65,-3.07,5.16
16402500,9,31.913913,-98.600013,1413.06,42.53,0.28,1004.13,18.37,12.25,52.6,-12.39,-6.84,2.44,0.04,-0.02,0.65,1.62,-3.09,5.15
16402600,10,31.913911,-98.600013,1413.06,42.53,0.28,1004.13,18.37,12.25,52.6,-12.57,-6.84,2.62,0.09,-0.09,0.66,1.66,-3.08,5.14
16402700,10,31.913911,-98.600013,1413.71,42.53,0.01,1003.9,18.37,12.25,52.6,-12.21,-7.08,2.62,0.09,-0.12,0.59,1.66,-3.03,5.16
16402700,10,31.913911,-98.600013,1413.71,42.53,0.05,1004.13,18.37,12.25,52.6,-12.33,-6.84,2.69,0.08,-0.09,0.63,1.66,-3.04,5.15
16402800,10,31.913911,-98.600013,1413.71,42.53,0,1003.9,18.37,12.25,52.6,-12.33,-6.9,2.44,0.03,-0.09,0.66,1.63,-3.08,5.15
16402900,10,31.913911,-98.600013,1413.71,42.53,0,1003.9,18.37,12.25,52.6,-12.45,-6.59,2.5,0.09,-0.08,0.64,1.66,-3.07,5.15
16402900,10,31.913911,-98.600013,1413.71,42.53,0,1004.13,18.37,12.25,52.6,-12.21,-6.96,2.38,0.09,-0.09,0.66,1.66,-3.05,5.15
16403000,10,31.913909,-98.600013,1413.71,42.53,0,1003.9,18.37,12.25,52,-12.39,-7.14,2.75,0.09,-0.11,0.65,1.66,-3.05,5.16
16403100,10,31.913909,-98.600013,1413.71,42.53,0,1003.9,18.37,12.25,52,-12.21,-6.77,2.44,0.12,-0.1,0.67,1.66,-3.03,5.16
16403200,10,31.913909,-98.600013,1413.71,42.53,0,1004.13,18.37,9.5,52,-12.27,-6.59,2.32,0.09,-0.11,0.64,1.64,-3.05,5.17
16403300,10,31.913909,-98.600013,1413.71,42.53,0,1003.9,18.37,12.25,52,-12.08,-6.77,2.75,0.09,-0.14,0.64,1.65,-3.02,5.17
16403300,10,31.913909,-98.600013,1413.71,42.53,0,1004.13,18.37,12.25,52.2,-12.15,-6.9,2.81,0.1,-0.12,0.64,1.64,-3.05,5.16
16403400,10,31.913909,-98.600013,1413.71,42.53,0,1003.74,18.37,12.25,52.6,-12.33,-6.96,2.69,0.09,-0.13,0.62,1.64,-3.05,5.18
16403500,10,31.913909,-98.600013,1413.71,42.53,0,1003.9,18.37,12.25,52.6,-12.51,-6.9,2.56,0.11,-0.13,0.66,1.65,-3.06,5.17
16403500,10,31.913909,-98.600013,1413.71,42.53,0,1003.9,18.37,12.25,52.6,-12.45,-7.02,2.38,0.11,-0.09,0.64,1.65,-3.04,5.15
16403600,10,31.913906,-98.600006,1413.06,42.53,0.15,1003.74,18.37,12.5,52.6,-12.39,-6.59,2.62,0.09,-0.11,0.63,1.63,-3.04,5.16
16403700,10,31.913906,-98.600006,1413.06,42.53,0.15,1003.74,18.44,12.5,52.3,-12.15,-6.77,2.5,0.11,-0.12,0.66,1.64,-3.06,5.17
16403800,10,31.913906,-98.600006,1413.06,42.53,0.01,1003.9,18.37,12.5,52.7,-12.33,-6.71,2.69,0.1,-0.11,0.63,1.64,-3.06,5.16
16403900,10,31.913906,-98.600006,1413.06,42.53,0.01,1003.74,18.44,12.5,52.7,-12.39,-6.77,2.87,0.09,-0.11,0.65,1.64,-3.04,5.16
16403900,10,31.913906,-98.600006,1413.06,42.53,0.01,1003.74,18.31,12.5,52.2,-12.39,-6.84,2.69,0.09,-0.09,0.65,1.63,-3.06,5.16
16404000,10,31.913906,-98.600006,1413.06,42.53,0,1003.9,18.37,12.5,52.7,-12.33,-7.02,2.81,0.09,-0.1,0.65,1.63,-3.07,5.16
16404100,9,31.913906,-98.600006,1413.06,42.53,0,1003.9,18.37,12.5,52.7,-12.27,-7.02,2.5,0.1,-0.12,0.64,1.63,-3.04,5.16
16404200,10,31.913906,-98.600006,1413.06,42.53,0,1003.74,18.37,12.25,52.2,-12.33,-6.96,2.56,0.12,-0.1,0.65,1.56,-3.08,5.14
16404200,10,31.913906,-98.600006,1413.06,42.53,0,1003.74,18.37,12.5,52.2,-12.45,-6.9,2.56,0.1,0.01,0.63,1.57,-3.09,5.11
16404300,10,31.913906,-98.600006,1413.06,42.53,0,1003.74,18.37,12.25,52.4,-12.39,-6.9,2.5,0.11,-0.04,0.62,1.57,-3.11,5.13
16404400,10,31.913904,-98.600006,1411.09,42.53,0.62,1003.74,18.37,12.25,52.8,-12.33,-6.84,2.5,0.06,-0.02,0.61,1.48,-3.14,5.14
16404500,10,31.913906,-98.599998,1410.76,42.53,0.62,1003.74,18.37,12.25,52.8,-12.33,-6.77,2.62,-0.07,0.02,0.7,1.45,-3.16,5.12
16404500,10,31.913906,-98.599998,1410.76,42.53,0.62,1004.13,18.37,12.25,52.3,-12.39,-6.9,2.75,0.03,0.01,0.67,1.47,-3.15,5.13
16404600,10,31.913904,-98.599998,1410.43,42.53,0.62,1004.13,18.37,12.25,52.3,-12.21,-7.08,2.69,0.05,-0.03,0.69,1.48,-3.13,5.12
16404700,10,31.913904,-98.59999,1410.43,42.53,0.69,1003.9,18.37,12.25,52.5,-12.27,-6.84,2.87,0,-0.01,0.62,1.48,-3.18,5.12
16404800,10,31.913904,-98.599983,1410.76,42.53,0.69,1003.9,18.37,12.25,52.5,-12.45,-6.65,2.69,0.1,-0.01,0.64,1.47,-3.16,5.11
16404800,10,31.913904,-98.599983,1410.76,42.53,0.69,1004.29,18.37,12.25,52.5,-12.15,-6.9,2.38,0.05,-0.02,0.62,1.46,-3.2,5.12
16404900,10,31.913906,-98.599983,1410.76,63.83,1.65,1003.9,18.37,12.25,52.9,-12.33,-6.71,2.56,0.06,0.01,0.67,1.43,-3.24,5.12
16405000,10,31.913909,-98.599967,1410.1,59.95,1.84,1003.9,18.37,12.25,52.9,-12.08,-6.9,2.38,0,0.03,0.64,1.42,-3.19,5.13
16405000,10,31.913909,-98.599967,1410.1,59.95,1.84,1004.13,18.37,12.25,52.9,-12.27,-6.65,2.38,0.11,0.02,0.58,1.49,-3.15,5.11
16405100,10,31.913913,-98.599967,1409.45,53.67,1.82,1004.13,18.37,12.25,52.9,-12.51,-7.14,2.5,0.05,0,0.67,1.51,-3.13,5.12
16405200,10,31.913917,-98.59996,1407.48,53.67,1.82,1004.29,18.37,12.25,52.6,-12.39,-6.77,2.26,0.04,-0.08,0.83,1.53,-3.13,5.13
16405300,10,31.913921,-98.599945,1404.86,41.21,1.42,1004.13,18.37,12.25,53,-12.63,-6.9,2.56,0.14,-0.02,0.68,1.61,-3.1,5.14
16405400,10,31.913921,-98.599945,1402.89,41.21,1.42,1004.29,18.37,12.25,53,-12.21,-7.08,2.5,0.03,-0.12,0.62,1.58,-3.06,5.15
16405400,10,31.913921,-98.599945,1402.89,41.21,1.42,1004.29,18.44,12.25,52.6,-12.27,-6.84,2.38,0.05,-0.05,0.68,1.59,-3.08,5.15
16405500,10,31.913921,-98.599945,1402.56,41.21,0.67,1004.13,18.37,12.25,53,-12.21,-6.53,2.5,0.1,-0.05,0.72,1.61,-3.07,5.16
16405600,10,31.913921,-98.599945,1403.54,41.21,0.67,1004.13,18.37,12.25,53,-12.21,-7.02,2.62,-0.12,-0.04,0.62,1.7,-3.08,5.15
16405700,10,31.913919,-98.599945,1403.87,41.21,0.46,1004.29,18.37,12.25,53,-12.15,-6.77,2.56,0.05,0,0.65,1.76,-3.15,5.13
16405700,10,31.913919,-98.599945,1403.87,41.21,0.46,1004.13,18.37,12.25,53,-12.21,-6.41,2.38,0.02,0.03,0.66,1.8,-3.17,5.15
16405800,10,31.913917,-98.599945,1403.87,41.21,0.76,1004.13,18.37,12.25,52.4,-12.15,-7.2,2.32,0.02,-0.13,0.64,1.84,-3.18,5.17
16405900,10,31.913917,-98.599945,1402.56,41.21,0.75,1004.13,18.37,12.25,53,-12.33,-6.65,2.56,0.06,-0.05,0.66,1.84,-3.15,5.19
16405900,10,31.913917,-98.599945,1402.56,41.21,0.75,1004.29,18.37,12.25,53,-12.33,-6.96,2.5,0.04,0.03,0.66,1.79,-3.16,5.13
16410000,10,31.913915,-98.599945,1403.54,41.21,0.75,1004.13,18.37,12.25,52.7,-12.21,-6.96,2.69,0.03,-0.01,0.66,1.77,-3.18,5.14
16410100,10,31.913917,-98.599952,1403.54,41.21,0.75,1004.13,18.37,12.25,52.7,-12.02,-6.77,2.62,0.07,0.01,0.68,1.78,-3.14,5.14
16410200,10,31.913917,-98.599952,1403.54,41.21,0,1004.29,18.37,12.5,52.7,-12.57,-6.71,2.75,0.09,0.07,0.66,1.8,-3.18,5.14
16410300,10,31.913917,-98.599952,1402.89,41.21,0,1004.13,18.37,12.5,52.7,-12.51,-7.14,2.69,0.05,0.01,0.73,1.78,-3.15,5.14
16410300,10,31.913917,-98.599952,1402.89,41.21,0,1004.13,18.37,12.5,52.7,-12.39,-7.14,2.2,0.07,0.04,0.65,1.76,-3.15,5.15
16410400,10,31.913917,-98.599952,1404.86,41.21,0.21,1004.13,18.44,12.5,53,-12.21,-6.77,2.62,0.06,0.13,0.61,1.73,-3.16,5.13
16410500,10,31.913919,-98.599952,1404.53,41.21,0.21,1004.13,18.37,12.5,53,-12.45,-7.02,2.75,0.05,0.06,0.75,1.73,-3.14,5.12
16410500,10,31.913919,-98.599952,1404.53,41.21,0.79,1003.9,18.37,12.75,52.7,-12.39,-6.96,2.56,0.03,-0.01,0.72,1.8,-3.22,5.15
16410500,10,31.913919,-98.599952,1404.53,41.21,0.79,1004.13,18.37,12.75,53.1,-12.15,-6.96,2.75,0.06,-0.02,0.74,1.85,-3.24,5.16
16410700,10,31.913921,-98.599945,1402.89,41.21,0.87,1004.13,18.37,12.5,53.1,-12.39,-6.84,2.5,0.03,-0.01,0.65,1.87,-3.25,5.18
16410800,10,31.913919,-98.599937,1402.23,41.21,0.87,1004.29,18.37,12.5,53.1,-12.27,-6.9,2.5,-0.03,0.02,0.63,1.85,-3.22,5.15
16410800,10,31.913919,-98.599937,1402.23,41.21,0.58,1004.29,18.37,12.5,53.1,-12.51,-6.9,2.62,0.01,0.02,0.55,1.84,-3.25,5.15
16410900,10,31.913919,-98.599937,1402.23,41.21,0.28,1004.13,18.37,12.5,52.6,-12.33,-6.59,2.5,-0.02,0,0.64,1.85,-3.3,5.16
16411000,10,31.913919,-98.599937,1402.56,41.21,0.3,1004.13,18.37,12.5,53.1,-12.57,-7.08,2.56,0.03,-0.03,0.67,1.85,-3.3,5.16
16411000,10,31.913919,-98.599937,1402.56,41.21,0.3,1004.13,18.37,12.75,53.1,-12.21,-6.41,2.5,-0.04,-0.03,0.65,1.85,-3.3,5.13
16411100,10,31.913919,-98.599937,1401.57,41.21,0.36,1003.9,18.37,12.75,53.1,-12.33,-7.14,2.56,0.05,0.03,0.73,1.9,-3.31,5.17
16411200,10,31.913921,-98.599937,1401.57,41.21,0.36,1004.13,18.44,12.5,52.7,-12.33,-6.77,2.69,0.14,-0.11,0.73,1.94,-3.3,5.21
16411300,10,31.913919,-98.599937,1403.22,41.21,0.41,1004.13,18.37,12.5,53.1,-12.21,-7.14,2.75,0.01,0.01,0.86,1.9,-3.36,5.19
16411400,10,31.913917,-98.599937,1403.22,41.21,0.41,1004.13,18.37,12.5,53.1,-12.27,-6.71,2.81,0.1,0.07,0.63,1.93,-3.38,5.21
16411400,10,31.913917,-98.599937,1403.22,41.21,0.41,1003.9,18.44,12.5,52.5,-12.21,-6.47,2.5,0.19,-0.03,0.62,1.99,-3.4,5.27
16411500,10,31.913917,-98.599937,1403.22,41.21,0.01,1004.13,18.37,12.75,53.1,-12.08,-7.2,2.38,0.19,-0.01,0.58,1.99,-3.38,5.27
16411600,10,31.913917,-98.599937,1402.56,41.21,0.01,1004.13,18.37,12.75,53.1,-12.57,-6.77,2.56,0.16,0.05,0.62,1.93,-3.27,5.21
16411700,10,31.913917,-98.599937,1402.23,41.21,0.35,1004.29,18.44,12.75,52.7,-12.08,-6.84,2.87,0.08,0,0.71,1.87,-3.23,5.19
16411700,10,31.913917,-98.599937,1402.23,41.21,0.35,1003.9,18.37,12.75,52.7,-12.45,-6.71,2.56,0.1,-0.08,0.65,1.94,-3.27,5.22
16411800,10,31.913917,-98.599937,1402.56,41.21,0.43,1003.9,18.37,12.75,52.6,-12.57,-6.71,2.99,0.05,0.01,0.62,1.88,-3.24,5.19
16411900,10,31.913917,-98.599937,1402.23,41.21,0.37,1004.13,18.37,12.75,53.1,-12.39,-6.96,2.75,-0.03,0.03,0.58,1.84,-3.21,5.17
16412000,10,31.913917,-98.599937,1402.23,41.21,0.37,1003.9,18.37,12.75,53.1,-12.33,-6.65,2.5,0.01,0,0.77,1.77,-3.16,5.14
16412000,10,31.913917,-98.599937,1402.23,41.21,0.37,1003.9,18.37,12.75,52.7,-12.39,-6.65,2.81,0.04,0,0.65,1.79,-3.18,5.15
16412100,10,31.913915,-98.599937,1402.56,41.21,0.37,1003.9,18.37,12.75,52.7,-12.27,-6.71,2.62,0.11,0,0.71,1.86,-3.21,5.16
16412200,10,31.913917,-98.599937,1403.22,41.21,0.36,1003.9,18.37,12.75,52.8,-12.27,-7.02,2.5,0.04,0.17,0.6,1.86,-3.3,5.16
16412300,10,31.913919,-98.599937,1403.54,41.21,0.36,1003.9,18.37,12.75,52.8,-12.45,-7.02,2.62,-0.05,0.08,0.69,1.84,-3.36,5.14
16412300,10,31.913919,-98.599937,1403.54,41.21,0.36,1004.13,18.44,12.75,52.8,-12.57,-7.02,2.87,-0.06,0.19,0.68,1.84,-3.35,5.17
16412400,10,31.913923,-98.599929,1403.22,41.21,0.56,1004.13,18.37,12.75,53.1,-12.27,-6.9,2.62,0.02,0.04,0.69,1.88,-3.35,5.2
16412500,10,31.913925,-98.599929,1403.54,41.21,0.56,1004.13,18.37,12.75,53.2,-12.33,-6.96,2.56,-0.1,0.06,0.66,1.84,-3.31,5.12
16412500,10,31.913925,-98.599929,1403.54,41.21,0.64,1004.13,18.37,13,53.2,-12.45,-7.14,2.5,-0.04,0.08,0.66,1.79,-3.23,5.08
16412600,10,31.913925,-98.599929,1403.54,41.21,0.49,1003.9,18.37,13,53.2,-12.7,-6.9,2.81,-0.06,0,0.6,1.77,-3.17,5.16
16412700,10,31.913927,-98.599929,1403.54,41.21,0.37,1004.13,18.44,13,53.2,-12.39,-6.84,2.44,-0.08,-0.04,0.65,1.76,-3.16,5.15
16412800,10,31.913927,-98.599929,1403.22,41.21,0,1004.13,18.44,13,53.1,-12.27,-6.84,2.32,-0.09,-0.02,0.63,1.76,-3.16,5.16
16412800,10,31.913927,-98.599929,1403.22,41.21,0,1004.13,18.37,13,53.1,-12.45,-6.84,2.44,-0.07,-0.01,0.68,1.76,-3.13,5.15
16412900,10,31.913927,-98.599929,1403.22,41.21,0,1003.9,18.37,13,52.7,-12.08,-6.71,2.75,-0.04,0.12,0.66,1.75,-3.17,5.16
16413000,10,31.913927,-98.599929,1403.22,41.21,0,1003.9,18.37,13,53.3,-12.27,-6.84,2.26,-0.06,0,0.7,1.75,-3.16,5.16
16413100,10,31.913927,-98.599929,1403.22,41.21,0,1004.13,18.37,13,53.3,-12.27,-7.02,2.93,-0.07,-0.04,0.64,1.76,-3.14,5.15
16413200,10,31.913927,-98.599929,1403.22,41.21,0,1003.9,18.37,9.75,53.3,-12.57,-6.84,2.81,-0.05,-0.01,0.66,1.75,-3.13,5.16
16413200,10,31.913927,-98.599929,1403.22,41.21,0,1003.9,18.37,13,52.9,-12.27,-6.84,2.81,-0.05,0,0.67,1.76,-3.17,5.16
16413300,10,31.913927,-98.599929,1403.22,41.21,0,1004.13,18.37,13,53.1,-12.33,-6.84,2.56,-0.07,-0.02,0.68,1.75,-3.17,5.17
16413400,10,31.913927,-98.599929,1403.22,41.21,0,1004.13,18.37,13,53.3,-12.27,-6.53,2.87,-0.09,-0.03,0.66,1.76,-3.17,5.16
16413400,10,31.913927,-98.599929,1403.22,41.21,0,1003.9,18.44,13,53.3,-12.39,-6.53,2.56,-0.07,-0.01,0.69,1.75,-3.14,5.16
16413500,10,31.913927,-98.599929,1403.22,41.21,0,1004.13,18.37,13,52.8,-12.33,-7.08,2.44,-0.05,0,0.66,1.75,-3.16,5.17
16413600,10,31.913927,-98.599929,1403.22,41.21,0,1004.13,18.37,13,52.8,-12.51,-6.84,2.5,-0.08,-0.04,0.65,1.76,-3.15,5.16
16413700,10,31.913927,-98.599929,1403.22,41.21,0,1004.13,18.37,13,52.8,-12.21,-6.47,2.81,-0.08,-0.04,0.64,1.76,-3.17,5.16
16413700,10,31.913927,-98.599929,1403.22,41.21,0,1004.29,18.37,13,52.8,-12.39,-6.65,2.56,-0.07,-0.04,0.63,1.75,-3.15,5.16
16413800,10,31.913927,-98.599929,1403.22,41.21,0,1004.13,18.37,13,52.8,-12.21,-6.59,2.5,-0.05,0,0.68,1.75,-3.17,5.17
16413900,10,31.913927,-98.599929,1402.89,41.21,0,1004.13,18.37,13,53.2,-12.15,-6.77,2.75,-0.06,-0.01,0.67,1.76,-3.16,5.16
16414000,10,31.913927,-98.599929,1402.89,41.21,0,1004.29,18.44,13,53.2,-12.51,-7.02,2.56,-0.07,-0.03,0.65,1.76,-3.14,5.15
16414000,10,31.913927,-98.599929,1402.89,41.21,0,1004.13,18.44,13,52.9,-12.27,-6.77,2.87,-0.07,-0.02,0.66,1.76,-3.16,5.16
16414100,10,31.913927,-98.599929,1402.89,41.21,0,1004.29,18.37,13,53.3,-12.33,-6.77,2.44,-0.05,-0.01,0.64,1.75,-3.16,5.16
16414200,10,31.913927,-98.599929,1402.89,41.21,0,1004.13,18.37,13,53.3,-12.51,-6.77,2.75,-0.07,-0.04,0.63,1.75,-3.16,5.16
16414300,10,31.913927,-98.599929,1402.89,41.21,0,1004.13,18.37,13,53.2,-12.15,-7.08,2.62,-0.05,-0.01,0.65,1.76,-3.16,5.16
16414300,10,31.913927,-98.599929,1402.89,41.21,0,1004.29,18.44,13,53.2,-12.21,-6.84,2.81,-0.08,-0.03,0.64,1.76,-3.13,5.15
16414400,10,31.913927,-98.599922,1402.89,41.21,0,1004.13,18.37,13,52.7,-12.51,-6.59,2.75,-0.08,-0.04,0.65,1.76,-3.17,5.15
16414500,10,31.913927,-98.599922,1402.89,41.21,0,1004.13,18.37,13,53.3,-11.96,-6.84,2.56,-0.07,-0.04,0.63,1.76,-3.16,5.16
16414500,10,31.913927,-98.599922,1402.89,41.21,0,1004.29,18.44,13.25,53.3,-12.02,-6.9,2.38,-0.04,-0.01,0.66,1.76,-3.14,5.14
16414600,10,31.913927,-98.599922,1402.89,41.21,0,1004.13,18.37,13,53.3,-12.57,-6.59,2.62,-0.07,-0.01,0.69,1.76,-3.14,5.15
16414700,10,31.913927,-98.599922,1402.89,41.21,0,1003.9,18.37,13,53,-12.51,-6.65,2.44,-0.07,-0.03,0.64,1.76,-3.16,5.16
16414800,10,31.913927,-98.599922,1402.89,41.21,0,1004.29,18.44,13,53.4,-12.21,-6.71,2.75,-0.06,-0.04,0.63,1.75,-3.16,5.16
16414900,10,31.913927,-98.599922,1402.89,41.21,0,1004.29,18.37,13,53.4,-12.27,-6.77,2.56,-0.07,-0.03,0.63,1.76,-3.14,5.16
16414900,10,31.913927,-98.599922,1402.89,41.21,0,1004.29,18.37,13,52.7,-12.21,-6.77,2.75,-0.06,0,0.67,1.76,-3.14,5.15
16415000,10,31.913927,-98.599922,1402.89,41.21,0,1004.29,18.37,13,53.3,-12.08,-6.84,2.62,-0.07,-0.04,0.65,1.76,-3.17,5.15
16415100,10,31.913925,-98.599922,1400.92,41.21,0,1004.29,18.37,13,53.3,-12.45,-6.77,2.56,-0.05,-0.01,0.67,1.76,-3.14,5.15
16415200,10,31.913925,-98.599922,1400.92,41.21,0.01,1004.13,18.37,13,53,-12.51,-6.9,2.5,-0.04,-0.01,0.66,1.76,-3.17,5.16
16415200,10,31.913925,-98.599922,1400.92,41.21,0.01,1004.29,18.44,13,53,-12.57,-6.71,2.69,0.02,0.04,0.83,1.74,-3.15,5.17
16415300,10,31.913925,-98.599922,1400.92,41.21,0.01,1004.13,18.44,13,53,-12.39,-6.71,2.5,-0.19,-0.15,0.6,1.74,-3.58,5.26
16415400,10,31.913921,-98.599922,1399.28,41.21,1.22,1004.29,18.44,13,53.4,-12.27,-6.59,2.44,-0.07,0.17,0.63,1.52,-3.61,5.26
16415500,10,31.913915,-98.599929,1399.61,41.21,1.22,1004.13,18.37,13,53.4,-12.45,-6.77,2.81,-0.07,-0.11,0.75,1.41,-3.38,5.14
16415500,10,31.913915,-98.599929,1399.61,41.21,1.22,1004.29,18.44,13,53,-12.33,-6.9,2.5,-0.09,-0.15,0.64,1.32,-3.24,5.18
16415600,10,31.913909,-98.599929,1400.26,41.21,1.22,1004.13,18.44,13,53.3,-12.45,-7.32,2.62,-0.11,-0.13,0.6,1.32,-3.14,5.2
16415700,10,31.913904,-98.599945,1400.26,231.89,2.67,1004.13,18.37,13,53.1,-12.27,-7.02,2.62,-0.08,-0.15,0.47,1.33,-3.13,5.21
16415800,10,31.913902,-98.599952,1399.93,231.89,2.67,1004.13,18.37,13,53.1,-12.33,-6.84,2.5,-0.14,-0.18,0.62,1.33,-3.09,5.2
16415800,10,31.913902,-98.599952,1399.93,231.89,2.67,1004.13,18.37,12.75,53.1,-12.82,-6.84,2.75,-0.11,-0.19,0.63,1.31,-3.12,5.2
16415900,10,31.913898,-98.599967,1399.93,245.13,2.43,1004.29,18.37,13,52.7,-12.7,-7.02,2.87,-0.01,-0.28,0.55,1.34,-3.14,5.18
16420000,10,31.913896,-98.599975,1399.28,250.17,2.08,1004.29,18.37,12.75,53.4,-12.45,-6.9,2.75,-0.08,-0.15,0.58,1.33,-3.2,5.17
16420000,10,31.913896,-98.599975,1399.28,250.17,2.08,1004.29,18.37,12.5,53.4,-12.33,-7.02,2.62,-0.08,-0.15,0.61,1.33,-3.23,5.15
16420100,10,31.913896,-98.59999,1399.28,262.59,1.71,1004.13,18.37,13,53.4,-12.21,-7.02,2.69,-0.07,-0.2,0.63,1.33,-3.25,5.16
16420200,10,31.913898,-98.59999,1399.61,262.59,1.71,1004.13,18.44,13,53,-12.39,-6.59,2.44,-0.08,-0.16,0.63,1.33,-3.27,5.15
16420300,10,31.913898,-98.599998,1399.61,262.59,0.1,1004.13,18.44,12.75,53.3,-12.27,-6.77,2.56,-0.08,-0.15,0.63,1.33,-3.27,5.15
16420400,10,31.913898,-98.59999,1399.61,262.59,0.1,1003.9,18.37,13,53.3,-12.15,-6.65,2.26,-0.07,-0.21,0.64,1.33,-3.22,5.15
16420400,10,31.913898,-98.59999,1399.61,262.59,0.1,1004.13,18.37,12.75,52.9,-12.27,-6.65,2.62,-0.08,-0.17,0.64,1.33,-3.22,5.16
16420500,10,31.913898,-98.59999,1399.61,262.59,0,1004.13,18.44,13,53.4,-12.33,-6.96,2.69,-0.09,-0.18,0.64,1.32,-3.26,5.16
16420600,10,31.913898,-98.59999,1399.61,262.59,0,1003.9,18.44,12.75,53.4,-12.39,-6.53,2.93,-0.07,-0.17,0.63,1.34,-3.24,5.14
16420700,10,31.913898,-98.59999,1399.61,262.59,0,1003.9,18.37,12.75,52.7,-12.63,-6.71,2.62,-0.08,-0.18,0.61,1.34,-3.25,5.16
16420700,10,31.913898,-98.59999,1399.61,262.59,0,1004.13,18.44,12.75,52.7,-12.33,-6.9,2.2,-0.06,-0.25,0.61,1.34,-3.2,5.15
16420800,10,31.913898,-98.59999,1399.61,262.59,0,1004.13,18.37,12.75,52.9,-12.63,-6.65,2.56,-0.08,-0.2,0.6,1.31,-3.22,5.17
16420900,10,31.913898,-98.59999,1399.61,262.59,0,1003.9,18.44,12.75,53.3,-12.39,-6.71,2.5,-0.05,-0.2,0.64,1.34,-3.23,5.16
16421000,10,31.913898,-98.59999,1399.61,262.59,0,1004.29,18.44,12.75,53.3,-12.33,-7.26,2.69,-0.05,-0.24,0.59,1.34,-3.22,5.15
16421000,10,31.913898,-98.59999,1399.61,262.59,0,1004.13,18.37,12.5,53,-12.33,-6.96,2.81,-0.02,-0.25,0.65,1.36,-3.21,5.14
16421100,10,31.913898,-98.599998,1399.93,262.59,0,1003.9,18.37,12.5,53.3,-12.21,-6.84,2.44,0,-0.26,0.6,1.38,-3.17,5.15
16421200,10,31.913898,-98.599998,1399.93,262.59,0.08,1003.9,18.37,12.5,52.9,-12.02,-6.77,2.56,0.02,-0.26,0.62,1.38,-3.21,5.13
16421300,10,31.913898,-98.599998,1399.93,262.59,0.08,1004.13,18.44,12.5,52.9,-12.39,-6.96,2.62,-0.02,-0.21,0.63,1.37,-3.19,5.15
16421300,10,31.913898,-98.599998,1399.93,262.59,0.02,1003.9,18.44,12.5,52.9,-12.15,-6.84,2.75,0.01,-0.24,0.62,1.38,-3.2,5.14
16421400,10,31.9139,-98.599998,1399.93,262.59,0,1003.9,18.44,12.5,53.4,-12.45,-6.59,2.69,-0.06,-0.2,0.65,1.35,-3.22,5.14
16421500,10,31.9139,-98.599998,1399.93,262.59,0,1003.9,18.37,12.5,53.3,-12.45,-7.2,2.75,-0.07,-0.25,0.6,1.33,-3.21,5.16
16421500,10,31.9139,-98.599998,1399.93,262.59,0,1004.13,18.37,12.5,53.3,-12.21,-6.59,2.69,-0.05,-0.23,0.61,1.35,-3.18,5.15
16421600,10,31.9139,-98.599998,1399.93,262.59,0,1004.13,18.37,12.5,53.3,-12.15,-6.65,2.69,-0.01,-0.29,0.62,1.35,-3.17,5.15
16421700,10,31.9139,-98.599998,1399.93,262.59,0,1003.9,18.37,12.5,53,-12.45,-7.02,2.5,-0.07,-0.21,0.61,1.34,-3.22,5.16
16421800,10,31.9139,-98.599998,1399.93,262.59,0,1003.9,18.37,12.5,53.4,-12.21,-6.84,2.5,-0.07,-0.21,0.62,1.33,-3.21,5.15
16421900,10,31.9139,-98.599998,1399.93,262.59,0,1004.13,18.37,12.5,53.4,-12.45,-6.65,2.69,-0.09,-0.21,0.62,1.33,-3.2,5.15
16421900,10,31.9139,-98.599998,1399.93,262.59,0,1003.9,18.44,12.5,53,-12.27,-6.77,2.44,-0.04,-0.2,0.65,1.35,-3.22,5.15
16422000,10,31.9139,-98.599998,1399.93,262.59,0,1003.9,18.44,12.5,53.4,-12.15,-6.59,2.81,-0.1,-0.25,0.63,1.32,-3.2,5.16
16422100,10,31.9139,-98.599998,1399.93,262.59,0,1003.74,18.44,12.5,53.4,-12.21,-6.77,2.62,-0.08,-0.22,0.6,1.33,-3.19,5.15
16422200,10,31.9139,-98.599998,1399.93,262.59,0,1003.9,18.44,12.5,53.4,-12.21,-6.47,2.5,-0.12,-0.14,0.58,1.31,-3.25,5.15
16422200,10,31.9139,-98.599998,1399.93,262.59,0,1003.9,18.37,12.5,53.2,-12.08,-7.08,2.69,-0.11,-0.24,0.69,1.31,-3.23,5.15
16422300,10,31.9139,-98.599998,1399.93,262.59,0.26,1003.9,18.44,12.5,53.4,-12.21,-6.84,2.75,-0.1,-0.16,0.64,1.33,-3.29,5.15
16422400,10,31.913902,-98.599998,1398.95,262.59,0.38,1003.9,18.37,12.5,53.4,-12.39,-6.9,2.56,-0.05,-0.19,0.59,1.38,-3.37,5.14
16422400,10,31.913902,-98.599998,1398.95,262.59,0.38,1003.9,18.37,12.5,53.4,-12.51,-6.71,2.62,-0.16,-0.06,0.46,1.42,-3.45,5.15
16422500,10,31.913902,-98.599998,1398.62,262.59,0.38,1004.29,18.37,12.25,53.1,-12.33,-7.08,2.44,-0.07,-0.07,0.87,1.46,-3.47,5.12
16422600,10,31.913904,-98.599998,1398.29,262.59,0.38,1003.9,18.37,12.25,53.1,-12.51,-6.9,2.5,-0.03,-0.04,0.66,1.52,-3.5,5.12
16422700,10,31.913904,-98.599998,1397.97,262.59,0.03,1004.29,18.44,12.5,53.1,-12.15,-6.84,2.44,-0.05,-0.06,0.65,1.5,-3.52,5.13
16422800,10,31.913904,-98.599998,1397.97,262.59,0.03,1004.13,18.44,12.5,53.1,-12.51,-6.9,2.75,-0.05,-0.03,0.65,1.51,-3.52,5.14
16422800,10,31.913904,-98.599998,1397.97,262.59,0.03,1003.9,18.44,12.5,53.1,-12.27,-6.96,2.69,-0.07,-0.01,0.67,1.5,-3.55,5.15
16422900,10,31.913904,-98.599998,1397.97,262.59,0,1004.13,18.44,12.5,53.6,-12.08,-6.96,2.75,-0.08,0,0.67,1.49,-3.56,5.16
16423000,9,31.913904,-98.599998,1397.97,262.59,0,1003.9,18.44,12.5,0,-12.45,-6.96,2.44,-0.09,-0.01,0.65,1.48,-3.53,5.15
16423000,9,31.913904,-98.599998,1397.97,262.59,0,1003.9,18.44,12.5,0,-12.51,-6.71,2.81,-0.1,0,0.65,1.47,-3.53,5.17
16423100,9,31.913904,-98.599998,1397.97,262.59,0.14,1004.13,18.44,12.5,0,-12.51,-6.71,2.75,-0.1,0.01,0.64,1.47,-3.54,5.18
16423200,9,31.913904,-98.599998,1397.97,262.59,0,1004.13,18.44,9.5,53.2,-12.21,-6.84,2.56,-0.1,0.01,0.63,1.48,-3.56,5.18
16423300,10,31.913904,-98.599998,1397.64,262.59,0,1004.13,18.44,12.75,53.5,-12.15,-6.47,2.62,-0.07,0,0.67,1.5,-3.57,5.17
16423300,10,31.913904,-98.599998,1397.64,262.59,0,1003.9,18.44,12.75,53.5,-12.27,-6.96,2.5,-0.08,0.04,0.67,1.49,-3.55,5.17
16423400,10,31.913904,-98.599998,1397.64,262.59,0,1003.9,18.37,12.5,53.2,-12.7,-6.71,2.44,-0.09,0.05,0.67,1.49,-3.59,5.19
16423500,10,31.913904,-98.599998,1397.64,262.59,0,1004.13,18.44,12.75,53.6,-12.27,-6.9,2.5,-0.08,0.06,0.66,1.5,-3.59,5.19
16423600,10,31.913904,-98.599998,1397.64,262.59,0,1003.9,18.44,12.75,53.6,-12.27,-6.77,2.87,-0.08,0.05,0.66,1.5,-3.57,5.19
16423700,10,31.913904,-98.599998,1397.64,262.59,0,1004.13,18.37,12.75,53.6,-12.33,-6.84,2.62,-0.08,0.07,0.66,1.5,-3.59,5.19
16423700,10,31.913904,-98.599998,1397.64,262.59,0,1003.9,18.44,12.75,53.6,-12.21,-6.96,2.87,-0.09,0.07,0.65,1.48,-3.57,5.2
16423800,10,31.913904,-98.599998,1397.64,262.59,0,1003.9,18.44,12.5,53.1,-12.21,-6.59,2.75,-0.1,0.06,0.65,1.48,-3.6,5.2
16423900,10,31.913904,-98.599998,1397.31,262.59,0.18,1003.9,18.37,12.75,53.6,-12.15,-6.65,2.44,-0.1,0.06,0.63,1.48,-3.6,5.2
16423900,10,31.913904,-98.599998,1397.31,262.59,0.18,1004.13,18.37,12.75,53.6,-12.33,-6.53,2.81,-0.08,0.05,0.65,1.49,-3.56,5.19
16424000,10,31.913904,-98.599998,1397.31,262.59,0.18,1004.13,18.44,13,53.2,-12.21,-6.59,2.56,-0.09,0.06,0.64,1.49,-3.59,5.2
16424100,10,31.913904,-98.599998,1397.31,262.59,0.18,1004.13,18.44,12.75,53.2,-12.15,-6.77,2.69,-0.08,0.06,0.64,1.5,-3.57,5.19
16424200,10,31.913904,-98.599998,1397.31,262.59,0.15,1004.13,18.44,13,53.3,-12.33,-6.77,2.81,-0.07,0.09,0.64,1.51,-3.6,5.2
16424300,10,31.913904,-98.599998,1397.31,262.59,0.15,1004.29,18.44,12.75,53.3,-12.27,-6.71,2.81,-0.08,0.08,0.64,1.51,-3.57,5.19
16424300,10,31.913904,-98.599998,1397.31,262.59,0.15,1004.13,18.44,12.75,53.2,-12.21,-6.9,2.44,-0.08,0.08,0.64,1.5,-3.61,5.21
16424400,10,31.913904,-98.599998,1397.31,262.59,0,1004.13,18.44,12.75,53.5,-12.33,-6.35,2.38,-0.09,0.09,0.64,1.5,-3.6,5.2
16424500,10,31.913904,-98.599998,1397.31,262.59,0,1003.9,18.44,12.5,53.5,-12.33,-6.96,2.56,-0.08,0.09,0.66,1.51,-3.61,5.2
16424500,10,31.913904,-98.599998,1397.31,262.59,0,1004.13,18.44,12.75,53.5,-12.27,-7.02,2.5,-0.12,0.11,0.62,1.5,-3.58,5.19
16424600,10,31.913904,-98.599998,1397.31,262.59,0,1004.13,18.44,12.75,53.5,-12.08,-6.71,2.69,-0.08,0.02,0.63,1.52,-3.58,5.18
16424700,10,31.913904,-98.599998,1397.31,262.59,0,1004.13,18.44,12.5,53.2,-12.33,-6.9,2.56,-0.04,0.02,0.65,1.48,-3.56,5.19
16424800,9,31.913904,-98.599998,1397.31,262.59,0.18,1004.13,18.44,12.75,53.6,-12.27,-6.84,2.5,-0.18,0.05,0.65,1.42,-3.53,5.19
16424900,10,31.913904,-98.599998,1396.98,262.59,0.18,1004.13,18.44,12.75,53.6,-12.21,-6.84,2.62,-0.11,0,0.67,1.32,-3.37,5.17
16424900,10,31.913904,-98.599998,1396.98,262.59,0.18,1004.13,18.44,12.75,53.3,-12.39,-6.59,2.56,-0.21,0.04,0.66,1.28,-3.39,5.2
16425000,10,31.913904,-98.599998,1396.65,262.59,0.47,1004.13,18.44,12.75,53.5,-12.27,-6.9,2.5,-0.21,0.17,0.64,1.27,-3.39,5.23
16425100,10,31.913902,-98.599998,1396.33,262.59,0.47,1004.13,18.44,12.75,53.5,-12.21,-6.71,2.69,-0.15,0.03,0.66,1.26,-3.27,5.18
16425200,10,31.913898,-98.59999,1396,262.59,0.98,1004.13,18.44,12.5,53.2,-12.15,-6.59,2.56,-0.2,0.04,0.6,1.25,-3.29,5.2
16425200,10,31.913898,-98.59999,1396,262.59,0.98,1004.13,18.44,12.75,53.2,-12.27,-6.9,2.75,-0.18,0.01,0.61,1.27,-3.25,5.18
16425300,10,31.913896,-98.59999,1395.34,262.59,0.44,1003.9,18.44,12.5,53.2,-12.02,-6.96,2.56,-0.17,0.04,0.63,1.28,-3.29,5.18
16425400,10,31.913896,-98.59999,1395.34,262.59,0.06,1003.9,18.44,12.5,53.7,-12.45,-7.02,2.56,-0.17,0.04,0.66,1.28,-3.27,5.18
16425500,10,31.913896,-98.59999,1395.34,262.59,0.06,1003.9,18.44,12.5,53.7,-12.21,-6.65,2.87,-0.17,0.04,0.65,1.28,-3.26,5.17
16425500,10,31.913896,-98.59999,1395.34,262.59,0.06,1003.9,18.44,12.5,53.2,-12.21,-6.84,2.62,-0.17,0.04,0.63,1.27,-3.29,5.18
16425600,10,31.913896,-98.59999,1395.34,262.59,0.06,1004.13,18.44,12.5,53.2,-12.21,-6.77,2.56,-0.18,0.04,0.64,1.28,-3.27,5.17
16425700,10,31.913898,-98.59999,1395.34,262.59,0,1003.9,18.44,12.5,53.2,-12.08,-6.53,2.5,-0.18,0.07,0.65,1.28,-3.29,5.18
16425800,10,31.913898,-98.59999,1395.34,262.59,0,1003.9,18.44,12.5,53.2,-12.15,-6.71,2.62,-0.17,0.05,0.65,1.28,-3.3,5.19
16425800,10,31.913898,-98.59999,1395.34,262.59,0,1003.9,18.44,12.25,53.1,-12.33,-6.77,2.69,-0.17,0.05,0.64,1.28,-3.31,5.18
16425900,10,31.913904,-98.599998,1395.34,262.59,0.05,1003.9,18.44,12.5,53.7,-12.15,-6.84,2.56,-0.19,0.03,0.61,1.27,-3.32,5.19
16430000,10,31.913904,-98.599998,1396.33,262.59,0.01,1003.9,18.44,12.5,53.6,-12.39,-6.71,2.56,-0.16,0.06,0.63,1.29,-3.32,5.18
16430000,10,31.913904,-98.599998,1396.33,262.59,0.01,1003.9,18.44,12.5,53.6,-12.33,-6.96,2.69,-0.19,0.03,0.75,1.28,-3.3,5.18
16430100,10,31.913904,-98.599998,1396.33,262.59,0,1003.9,18.44,12.5,53.6,-12.08,-6.9,2.5,-0.15,0.05,0.63,1.28,-3.29,5.17
16430200,10,31.913904,-98.599998,1396.33,262.59,0,1004.13,18.44,12.5,53.3,-12.45,-7.08,2.38,-0.16,0.04,0.64,1.28,-3.32,5.17
16430300,10,31.913904,-98.599998,1396.65,262.59,0,1003.9,18.44,12.5,53.6,-12.08,-7.08,2.81,-0.19,0.04,0.62,1.27,-3.34,5.19
16430400,10,31.913904,-98.599998,1396.65,262.59,0,1003.9,18.44,12.25,53.6,-12.33,-6.47,2.32,-0.17,0.04,0.64,1.28,-3.35,5.2
16430400,10,31.913904,-98.599998,1396.65,262.59,0,1004.13,18.44,12.25,53.2,-12.21,-6.9,2.44,-0.15,0.06,0.63,1.29,-3.38,5.19
16430500,10,31.913904,-98.599998,1396.65,262.59,0,1003.9,18.44,12.25,53.6,-12.02,-6.96,2.5,-0.17,0.05,0.64,1.28,-3.37,5.19
16430600,10,31.913904,-98.599998,1396.65,262.59,0,1003.9,18.44,12.25,53.6,-12.08,-6.59,2.69,-0.19,0.06,0.62,1.28,-3.35,5.19
16430700,9,31.913904,-98.599998,1396.65,262.59,0,1003.74,18.44,12.25,0,-12.21,-7.02,2.87,-0.16,0.05,0.64,1.28,-3.34,5.18
16430700,9,31.913904,-98.599998,1396.65,262.59,0,1003.9,18.44,12.25,53.1,-12.15,-6.59,2.62,-0.15,0.05,0.63,1.29,-3.36,5.19
16430800,9,31.913904,-98.599998,1396.65,262.59,0,1003.9,18.44,12.25,53.5,-12.27,-6.71,2.75,-0.15,0.06,0.64,1.29,-3.35,5.18
16430900,10,31.913904,-98.599998,1396.65,262.59,0,1004.13,18.44,12.25,53.6,-12.39,-6.84,2.56,-0.14,0.05,0.65,1.29,-3.36,5.2
16430900,10,31.913904,-98.599998,1396.65,262.59,0,1003.9,18.44,12.25,53.6,-12.33,-6.71,2.75,-0.15,0.04,0.64,1.29,-3.35,5.19
16431000,10,31.913904,-98.599998,1396.65,262.59,0,1003.9,18.44,12.25,53,-12.21,-6.59,2.75,-0.16,0.05,0.65,1.29,-3.36,5.19
16431100,10,31.913904,-98.599998,1396.65,262.59,0,1003.9,18.44,12.25,53,-12.27,-7.26,2.56,-0.15,0.05,0.65,1.29,-3.33,5.18
16431200,10,31.913904,-98.599998,1396.65,262.59,0,1003.9,18.44,12.25,53.2,-12.02,-6.53,2.69,-0.16,0.05,0.64,1.29,-3.35,5.18
16431300,10,31.913904,-98.599998,1396.65,262.59,0,1004.13,18.37,12.25,53.2,-12.27,-6.84,2.38,-0.14,0.03,0.63,1.3,-3.32,5.16
16431300,10,31.913904,-98.599998,1396.65,262.59,0,1004.13,18.44,12.25,53.2,-12.39,-6.41,2.69,-0.13,0.04,0.63,1.29,-3.31,5.17
16431400,10,31.913904,-98.599998,1396.65,262.59,0,1004.13,18.44,12.25,53.1,-12.51,-6.9,2.87,-0.15,0.06,0.64,1.28,-3.34,5.18
16431500,10,31.913904,-98.599998,1396.65,262.59,0,1004.13,18.44,12.25,53.5,-12.7,-6.71,2.5,-0.15,0.05,0.65,1.29,-3.35,5.19
16431500,10,31.913904,-98.599998,1396.65,262.59,0,1004.53,18.44,12,53.5,-12.7,-6.35,2.5,-0.09,0.1,0.67,1.3,-3.32,5.16
16431600,10,31.913904,-98.599998,1396.65,262.59,0,1004.13,18.44,12.25,53.5,-12.27,-6.71,2.38,-0.07,-0.17,0.67,1.37,-3.37,5.11
16431700,10,31.913908,-98.599998,1397.64,262.59,0,1004.13,18.44,12.25,53.3,-12.27,-6.96,2.5,-0.1,-0.17,0.62,1.38,-3.4,5.12
16431800,10,31.913911,-98.600006,1398.62,262.59,0.4,1004.13,18.44,12.25,53.5,-12.45,-6.65,2.62,-0.12,-0.11,0.66,1.4,-3.41,5.12
16431900,10,31.913915,-98.600006,1399.28,262.59,0.4,1004.13,18.44,12.25,53.5,-12.51,-6.84,2.5,-0.22,-0.19,0.57,1.33,-3.37,5.14
16431900,10,31.913915,-98.600006,1399.28,262.59,0.4,1004.13,18.44,12.25,52.9,-12.27,-7.02,2.38,-0.17,-0.15,0.64,1.38,-3.44,5.13
16432000,10,31.913917,-98.600006,1399.61,262.59,0.37,1004.13,18.44,12.25,53.5,-12.15,-6.9,2.5,-0.05,-0.11,0.69,1.5,-3.48,5.1
16432100,10,31.913917,-98.599998,1399.28,262.59,0.37,1004.13,18.44,12.25,53.5,-12.33,-6.9,2.69,-0.15,-0.36,0.91,1.44,-3.43,5.1
16432200,10,31.913917,-98.599998,1398.62,262.59,0.12,1004.13,18.44,12.25,53.5,-12.51,-6.77,2.81,-0.11,-0.02,0.56,1.46,-3.5,5.14
16432200,10,31.913917,-98.599998,1398.62,262.59,0.26,1004.13,18.44,12.5,53.5,-12.21,-6.84,2.69,-0.1,0.02,0.63,1.47,-3.53,5.16
16432300,10,31.913917,-98.599998,1398.62,262.59,0.26,1004.13,18.44,12.5,53.2,-12.57,-6.71,2.99,-0.06,0.03,0.67,1.52,-3.56,5.16
16432400,10,31.913917,-98.599998,1397.64,262.59,0.18,1004.13,18.44,12.5,53.6,-12.45,-7.02,2.5,-0.04,0.03,0.68,1.5,-3.56,5.16
16432400,10,31.913917,-98.599998,1397.64,262.59,0.18,1004.13,18.5,12.25,53.6,-12.39,-6.77,2.38,-0.04,0.05,0.67,1.52,-3.55,5.16
16432500,10,31.913917,-98.599998,1397.31,262.59,0.18,1003.9,18.44,12.25,53.2,-12.27,-6.77,2.75,-0.04,0.04,0.66,1.52,-3.57,5.16
16432600,10,31.913917,-98.599998,1397.31,262.59,0.18,1003.9,18.5,12.25,53.2,-12.45,-6.96,2.75,-0.04,0.04,0.66,1.51,-3.56,5.15
16432700,10,31.913917,-98.599998,1397.31,262.59,0,1003.9,18.5,12.5,53.2,-12.39,-6.9,2.5,-0.04,0.01,0.65,1.51,-3.57,5.16
16432800,10,31.913919,-98.599998,1397.31,262.59,0,1004.13,18.5,12.5,53.2,-12.39,-6.77,2.62,-0.02,0.04,0.65,1.54,-3.55,5.16
16432800,10,31.913919,-98.599998,1397.31,262.59,0,1003.9,18.5,12.5,53.2,-12.57,-6.77,2.5,-0.02,0.05,0.67,1.55,-3.58,5.17
16432900,10,31.913919,-98.599998,1397.31,262.59,0,1004.13,18.5,12.5,53.1,-12.27,-6.71,2.26,0,0.05,0.69,1.55,-3.59,5.17
16433000,10,31.913919,-98.599998,1397.31,262.59,0,1004.13,18.5,12.25,53.6,-12.45,-6.77,2.93,0.06,-0.11,0.63,1.58,-3.59,5.16
16433000,10,31.913919,-98.599998,1397.31,262.59,0,1004.13,18.5,12.25,53.6,-12.08,-6.96,2.56,0.04,0.02,0.58,1.61,-3.57,5.13
16433100,10,31.913919,-98.599998,1397.31,262.59,0,1003.9,18.44,12,53.6,-12.08,-6.9,2.44,0.14,0.06,0.64,1.7,-3.6,5.19
16433200,10,31.913919,-98.599998,1397.97,262.59,0,1003.9,18.44,12.25,53.2,-12.57,-6.77,2.5,0.12,0,0.67,1.73,-3.58,5.16
16433300,9,31.913923,-98.599998,1398.95,262.59,0.03,1003.9,18.5,12.25,53.6,-12.15,-6.59,2.38,0.14,-0.02,0.64,1.75,-3.56,5.16
16433400,10,31.913923,-98.599998,1398.95,262.59,0.03,1003.9,18.44,12.25,53.6,-12.21,-6.53,2.69,0.13,-0.01,0.64,1.75,-3.55,5.16
16433400,10,31.913923,-98.599998,1398.95,262.59,0.03,1003.9,18.44,12.25,53.2,-12.57,-6.65,2.62,0.15,0.03,0.65,1.75,-3.56,5.17
16433500,10,31.913927,-98.600006,1398.95,262.59,0.06,1003.9,18.44,12.25,53.6,-12.39,-6.96,2.5,0.13,0,0.65,1.76,-3.57,5.16
16433600,10,31.913927,-98.600006,1398.95,262.59,0.06,1003.9,18.44,12.25,53.6,-12.39,-6.77,2.62,0.15,-0.03,0.64,1.77,-3.55,5.16
16433700,10,31.913927,-98.600006,1398.95,262.59,0,1003.9,18.5,12.25,53.3,-12.33,-6.96,2.87,0.08,0.05,0.6,1.74,-3.59,5.18
16433700,10,31.913927,-98.600006,1398.95,262.59,0,1003.9,18.44,12.25,53.3,-12.51,-7.08,2.62,0,0,0.63,1.69,-3.54,5.15
16433800,10,31.913927,-98.600006,1398.95,262.59,0,1004.13,18.5,12.25,53.4,-12.51,-7.14,2.62,0.06,0.04,0.64,1.67,-3.59,5.17
16433900,10,31.913927,-98.600006,1398.95,262.59,0,1003.9,18.44,12.25,53.6,-12.21,-6.59,2.62,0.07,0.15,0.64,1.65,-3.64,5.21
16434000,10,31.913927,-98.600006,1398.95,262.59,0,1003.9,18.5,12.25,53.6,-12.15,-6.77,2.5,0.05,0.12,0.64,1.63,-3.6,5.19
16434000,10,31.913927,-98.600006,1398.95,262.59,0,1003.9,18.44,12.25,53.1,-12.27,-6.9,2.75,0.06,0.08,0.64,1.63,-3.62,5.2
16434100,10,31.913928,-98.600006,1399.28,262.59,0,1003.9,18.5,12.25,53.6,-12.45,-6.84,2.56,0.06,0.11,0.65,1.63,-3.61,5.21
16434200,10,31.913928,-98.600006,1399.28,262.59,0,1003.74,18.5,12.5,53.7,-12.27,-6.65,2.44,0.06,0.15,0.64,1.65,-3.64,5.23
16434300,10,31.913928,-98.600006,1399.28,262.59,0,1003.9,18.44,12.5,53.7,-11.96,-6.9,2.69,0.08,-0.09,0.64,1.65,-3.55,5.14
16434300,10,31.913928,-98.600006,1399.28,262.59,0,1003.9,18.44,12.5,53.7,-12.27,-6.96,2.87,0,0.1,0.73,1.64,-3.6,5.18
16434400,10,31.913928,-98.599998,1399.28,262.59,0.1,1004.13,18.44,12.5,53.3,-12.39,-6.71,2.69,0.06,0.05,0.67,1.65,-3.6,5.18
16434500,10,31.91393,-98.599998,1400.59,262.59,0.15,1003.9,18.44,12.5,53.6,-12.27,-6.59,2.38,0.09,0.02,0.63,1.64,-3.58,5.17
16434500,10,31.91393,-98.599998,1400.59,262.59,0.15,1004.13,18.44,12.5,53.6,-12.21,-6.9,2.62,0.11,0.07,0.64,1.65,-3.56,5.18
16434600,10,31.91393,-98.599998,1400.59,262.59,0.01,1003.9,18.5,12.5,53.6,-12.45,-6.96,2.5,0.1,0.06,0.65,1.6,-3.56,5.16
16434700,10,31.91393,-98.599998,1400.92,262.59,0.01,1004.13,18.5,12.75,53.2,-12.33,-6.77,2.93,0.05,0.04,0.68,1.58,-3.57,5.15
16434800,10,31.91393,-98.599998,1400.92,262.59,0,1003.9,18.5,12.75,53.6,-12.27,-6.65,2.62,0.05,0.04,0.64,1.57,-3.57,5.16
16434900,10,31.91393,-98.599998,1400.92,262.59,0,1003.9,18.5,12.5,53.6,-12.51,-6.59,2.56,0.06,0.1,0.66,1.58,-3.57,5.17
16434900,10,31.91393,-98.599998,1400.92,262.59,0,1004.13,18.44,12.75,53.2,-12.21,-6.96,2.69,0.08,0.07,0.66,1.58,-3.58,5.17
16435000,10,31.91393,-98.599998,1400.92,262.59,0,1004.13,18.5,12.75,53.5,-12.51,-6.84,2.87,0.06,0.07,0.64,1.59,-3.59,5.18
16435100,10,31.91393,-98.599998,1400.92,262.59,0,1003.9,18.44,12.5,53.5,-12.21,-6.47,2.62,0.07,0.1,0.66,1.6,-3.58,5.18
16435200,10,31.91393,-98.599998,1400.92,262.59,0,1003.9,18.44,12.5,53,-12.33,-6.77,2.56,0.06,0.09,0.64,1.59,-3.6,5.19
16435200,10,31.91393,-98.599998,1400.92,262.59,0,1004.13,18.5,12.5,53,-12.27,-6.41,2.75,0.05,0.09,0.65,1.59,-3.59,5.19
16435300,10,31.91393,-98.599998,1400.92,262.59,0,1004.13,18.44,12.25,53.2,-12.02,-6.65,2.75,0.06,0.07,0.66,1.59,-3.6,5.18
16435400,10,31.91393,-98.600006,1400.92,262.59,0,1003.9,18.44,12.25,53.5,-12.21,-6.47,2.69,0.07,0.08,0.65,1.6,-3.6,5.19
16435400,10,31.91393,-98.600006,1400.92,262.59,0,1003.9,18.5,12.25,53.5,-12.51,-6.9,2.62,0.06,0.09,0.65,1.6,-3.57,5.18
16435500,10,31.91393,-98.600006,1400.92,262.59,0,1003.9,18.44,12.25,53,-12.27,-6.71,2.5,0.05,0.09,0.67,1.59,-3.6,5.18
16435600,10,31.91393,-98.600006,1400.92,262.59,0,1003.9,18.5,12.25,53,-12.21,-6.96,2.5,-0.02,0.08,0.65,1.56,-3.57,5.18
16435700,10,31.91393,-98.600006,1400.92,262.59,0,1003.9,18.5,12.25,53.1,-12.15,-7.02,2.75,0.02,0.1,0.65,1.58,-3.6,5.19
16435800,10,31.91393,-98.600006,1400.92,262.59,0,1004.13,18.5,12.25,53.1,-12.15,-7.08,2.44,0.02,0.1,0.66,1.58,-3.59,5.19
16435800,10,31.91393,-98.600006,1400.92,262.59,0,1003.9,18.5,12.25,53.1,-12.08,-6.84,2.62,0,0.08,0.65,1.56,-3.59,5.19
16435900,10,31.91393,-98.600006,1400.92,262.59,0,1003.9,18.5,12.25,53.2,-12.21,-6.9,2.62,0.06,0.12,0.65,1.6,-3.62,5.21
16440000,10,31.91393,-98.600006,1400.92,262.59,0,1003.9,18.5,11.75,53.5,-12.39,-6.96,2.62,0.06,0.11,0.66,1.6,-3.62,5.21
16440000,10,31.91393,-98.600006,1400.92,262.59,0,1003.9,18.5,12.25,53.5,-12.08,-6.84,2.44,0.01,0.11,0.65,1.58,-3.61,5.2
16440100,10,31.91393,-98.600006,1400.92,262.59,0,1003.9,18.5,12.25,53.5,-12.33,-6.65,2.44,0.02,0.12,0.63,1.58,-3.61,5.2
16440200,10,31.91393,-98.600006,1400.92,262.59,0,1003.9,18.5,12.25,53.2,-12.15,-6.77,2.5,0.08,0.12,0.62,1.58,-3.62,5.2
16440300,10,31.91393,-98.600006,1400.92,262.59,0,1004.13,18.5,12.25,53.5,-12.57,-6.84,2.38,0.03,0.1,0.69,1.52,-3.57,5.17
16440400,10,31.91393,-98.599998,1401.25,262.59,0,1003.9,18.5,12.25,53.5,-12.33,-6.77,2.69,-0.04,0,0.75,1.44,-3.46,5.14
16440400,10,31.91393,-98.599998,1401.25,262.59,0,1004.13,18.5,12.25,53.5,-12.21,-6.65,2.56,-0.16,0,0.61,1.36,-3.46,5.18
16440500,10,31.91393,-98.599998,1401.25,262.59,0.1,1003.9,18.5,12.25,53.3,-12.39,-6.84,2.2,-0.24,0.06,0.64,1.35,-3.52,5.23
16440600,10,31.91393,-98.600006,1402.23,262.59,0.1,1003.9,18.44,12.25,53.3,-12.15,-6.84,2.62,-0.15,0.16,0.61,1.38,-3.52,5.23
16440700,10,31.91393,-98.600006,1403.22,262.59,0.2,1003.9,18.5,12.25,53.3,-12.27,-6.77,2.44,-0.16,0.12,0.62,1.34,-3.49,5.21
16440700,10,31.91393,-98.600006,1403.22,262.59,0.2,1004.13,18.5,12.25,53.3,-12.21,-6.9,2.81,0,0.07,0.68,1.4,-3.47,5.15
16440800,10,31.91393,-98.600006,1404.2,262.59,0.2,1004.13,18.5,12.25,53.2,-12.08,-6.84,2.81,0.11,0.04,0.69,1.46,-3.48,5.13
16440900,10,31.91393,-98.600006,1405.18,262.59,0.52,1004.13,18.5,12.25,53.7,-12.39,-6.9,2.69,-0.06,0,0.64,1.39,-3.46,5.15
16441000,10,31.91393,-98.600006,1404.86,262.59,0.52,1004.13,18.5,11.5,53.7,-12.39,-7.14,2.87,-0.05,0.14,0.64,1.37,-3.43,5.15
16441000,10,31.91393,-98.600006,1404.86,262.59,0.52,1004.13,18.44,12.25,53.1,-12.51,-6.96,2.56,-0.03,0.09,0.59,1.35,-3.39,5.15
16441100,10,31.91393,-98.600006,1405.18,262.59,0.52,1004.13,18.44,12.25,53.1,-12.27,-6.84,2.93,-0.02,0.1,0.61,1.36,-3.33,5.12
16441200,10,31.91393,-98.599998,1405.84,262.59,0.77,1004.13,18.5,12.25,53.3,-12.45,-6.96,2.62,-0.02,0.11,0.68,1.37,-3.35,5.13
16441300,10,31.913932,-98.599998,1406.82,262.59,0.77,1004.13,18.5,12.25,53.3,-11.96,-6.84,2.56,-0.12,0.03,0.67,1.34,-3.25,5.12
16441300,10,31.913932,-98.599998,1406.82,262.59,0.77,1004.13,18.5,12.25,53.3,-12.57,-6.77,2.5,-0.04,0.09,0.64,1.37,-3.27,5.11
16441400,10,31.913934,-98.599998,1406.82,262.59,0.37,1004.13,18.5,12.25,53.3,-12.33,-6.71,2.44,0,0.08,0.65,1.38,-3.28,5.11
16441500,10,31.913934,-98.599998,1407.48,262.59,0.02,1004.13,18.5,12.5,53.7,-12.21,-6.84,2.69,-0.03,0.06,0.63,1.37,-3.27,5.12
16441500,10,31.913934,-98.599998,1407.48,262.59,0.02,1004.13,18.5,12.5,53.7,-12.21,-6.71,2.69,-0.11,0.11,0.65,1.34,-3.27,5.13
16441600,10,31.913934,-98.599998,1407.48,262.59,0.01,1004.13,18.5,12.5,53.7,-12.39,-6.9,2.38,-0.08,0.08,0.66,1.34,-3.3,5.13
16441700,10,31.913934,-98.599998,1407.81,262.59,0.01,1004.13,18.5,12.5,53.4,-12.21,-6.71,2.5,-0.1,0.12,0.63,1.33,-3.3,5.14
16441800,10,31.913934,-98.599998,1407.81,262.59,0,1004.13,18.5,12.5,53.7,-12.51,-6.9,2.69,-0.1,0.13,0.65,1.33,-3.32,5.14
16441900,10,31.913934,-98.599998,1407.81,262.59,0,1004.29,18.5,12.5,53.7,-12.33,-6.77,2.56,-0.07,0.07,0.64,1.35,-3.29,5.13
16441900,10,31.913934,-98.599998,1407.81,262.59,0,1004.13,18.5,12.5,53.7,-12.63,-6.65,2.87,-0.04,0.11,0.64,1.35,-3.32,5.12
16442000,10,31.913934,-98.599998,1407.81,262.59,0,1004.13,18.5,12.5,53.4,-12.33,-6.9,2.69,-0.05,0.17,0.65,1.35,-3.38,5.14
16442100,10,31.913934,-98.599998,1407.81,262.59,0,1004.13,18.5,12.5,53.4,-12.27,-6.84,2.75,0.04,-0.07,0.62,1.42,-3.37,5.11
16442200,10,31.913934,-98.599998,1408.14,262.59,0.35,1004.13,18.5,12.5,53.4,-12.39,-6.77,2.62,0.17,-0.13,0.68,1.55,-3.43,5.07
16442200,10,31.913934,-98.599998,1408.14,262.59,0.35,1003.9,18.5,12.5,53.4,-12.51,-6.84,2.81,0.13,-0.02,0.65,1.53,-3.45,5.09
16442300,10,31.913936,-98.599998,1408.46,262.59,0.35,1004.13,18.5,12.5,53.4,-12.33,-6.71,2.44,0.1,-0.06,0.65,1.51,-3.46,5.1
16442400,10,31.913936,-98.599998,1408.46,262.59,0,1004.13,18.5,12.5,53.8,-12.27,-6.84,2.5,0.09,-0.06,0.66,1.52,-3.46,5.1
16442500,10,31.913936,-98.599998,1408.46,262.59,0,1003.9,18.5,12.5,53.8,-12.39,-7.02,2.62,0.04,-0.02,0.63,1.47,-3.47,5.12
16442500,10,31.913936,-98.599998,1408.46,262.59,0,1004.13,18.5,12.5,53.2,-12.63,-6.59,2.75,0,0.02,0.75,1.46,-3.49,5.14
16442500,10,31.913936,-98.599998,1408.46,262.59,0,1004.13,18.5,12.75,53.8,-12.27,-6.9,2.56,-0.04,0.05,0.69,1.43,-3.53,5.17
16442700,10,31.913934,-98.600006,1408.14,262.59,0.14,1004.13,18.5,12.75,53.8,-12.21,-6.77,2.32,0.11,0.06,0.75,1.46,-3.46,5.12
16442800,10,31.91393,-98.600006,1406.82,262.59,0.14,1004.29,18.5,12.75,53.8,-12.51,-6.77,2.56,0.25,0.09,0.63,1.44,-3.32,5.08
16442800,10,31.91393,-98.600006,1406.82,262.59,0.45,1004.13,18.5,12.75,53.8,-12.39,-6.9,2.26,0.02,0.05,0.64,1.46,-3.18,5.07
16442900,10,31.91393,-98.599998,1406.82,262.59,0.82,1004.13,18.5,12.75,53.4,-12.15,-6.77,2.75,-0.02,0.05,0.7,1.5,-3.14,5.09
16443000,10,31.913932,-98.599998,1406.5,262.59,0.44,1004.13,18.5,12.5,53.8,-12.15,-6.59,2.69,0.01,0.14,0.58,1.48,-3.16,5.08
16443000,10,31.913932,-98.599998,1406.5,262.59,0.44,1004.13,18.5,12.5,53.8,-12.21,-6.84,2.56,-0.03,0.02,0.46,1.55,-3.13,5.09
16443100,10,31.913932,-98.599998,1406.5,262.59,0,1004.13,18.5,7.75,53.8,-12.08,-6.41,2.62,-0.13,0.16,0.67,1.52,-3.15,5.08
16443200,10,31.913934,-98.599998,1406.5,262.59,0,1004.13,18.5,10.75,53.4,-12.45,-6.71,2.81,0.01,-0.06,0.65,1.59,-3.09,5.11
16443300,10,31.913932,-98.599998,1406.5,262.59,0,1004.13,18.5,12.25,53.7,-12.27,-7.02,2.69,-0.07,0.01,0.68,1.63,-3.13,5.1
16443400,10,31.913934,-98.599998,1406.5,262.59,0,1004.13,18.5,12.5,53.7,-11.96,-7.08,2.69,-0.1,-0.04,0.71,1.61,-3.12,5.09
16443400,10,31.913934,-98.599998,1406.5,262.59,0,1004.13,18.5,12.5,53.4,-12.51,-6.41,2.62,0,0,0.6,1.63,-3.08,5.11
16443500,10,31.913936,-98.599998,1406.5,262.59,0.76,1004.29,18.5,12.5,53.7,-12.51,-6.77,2.62,0.04,0.09,0.6,1.57,-3.15,5.09
16443600,10,31.91394,-98.59999,1406.82,262.59,0.76,1004.13,18.5,12.5,53.7,-12.33,-6.71,2.75,-0.09,0.22,0.7,1.51,-3.19,5.09
16443700,10,31.913946,-98.599983,1407.15,28.79,1.54,1003.9,18.5,12.5,53.4,-12.27,-6.77,2.32,-0.04,0.1,0.63,1.62,-3.16,5.08
16443700,10,31.913946,-98.599983,1407.15,28.79,1.54,1004.13,18.5,12.75,53.4,-12.08,-6.9,2.44,-0.09,0.13,0.65,1.75,-3.28,5.09
16443800,10,31.913953,-98.599983,1407.15,28.79,1.54,1004.13,18.44,12.5,53.4,-12.33,-6.84,2.5,-0.03,0.08,0.59,1.8,-3.47,5.17
16443900,9,31.913957,-98.599983,1407.15,16.45,0.92,1003.9,18.5,12.75,53.8,-12.45,-6.71,2.62,-0.09,0.11,0.64,1.78,-3.52,5.18
16444000,10,31.913957,-98.599983,1407.15,16.45,0.92,1003.9,18.56,12.75,53.8,-12.15,-7.02,2.62,-0.08,0.11,0.62,1.77,-3.52,5.19
16444000,10,31.913957,-98.599983,1407.15,16.45,0.92,1004.29,18.5,12.75,53.4,-12.45,-6.84,2.69,-0.07,0.13,0.65,1.76,-3.53,5.19
16444100,10,31.913957,-98.599983,1406.82,16.45,0.92,1004.13,18.5,12.75,53.4,-12.15,-6.84,2.81,-0.07,0.08,0.66,1.78,-3.5,5.17
16444200,10,31.913957,-98.599983,1406.5,16.45,0.14,1004.13,18.5,12.75,53.2,-12.39,-6.84,2.75,-0.05,0.11,0.65,1.78,-3.52,5.19
16444300,10,31.913957,-98.599983,1406.5,16.45,0.14,1004.13,18.5,12.75,53.2,-12.33,-6.9,2.69,-0.06,0.11,0.64,1.78,-3.5,5.17
16444300,10,31.913957,-98.599983,1406.5,16.45,0,1003.9,18.5,12.75,53.3,-12.08,-6.77,2.75,-0.07,0.07,0.66,1.64,-3.48,5.16
16444400,10,31.913957,-98.599983,1406.5,16.45,0,1004.29,18.5,12.75,53.7,-12.51,-6.77,2.99,-0.01,0.07,0.68,1.77,-3.52,5.18
16444500,10,31.913957,-98.599983,1406.5,16.45,0,1003.9,18.5,12.75,53.7,-12.39,-6.65,2.5,-0.1,0.07,0.65,1.79,-3.5,5.16
16444500,10,31.913957,-98.599983,1406.5,16.45,0,1004.13,18.5,12.75,53.7,-12.15,-6.77,2.62,-0.08,0.07,0.65,1.78,-3.46,5.16
16444600,10,31.913957,-98.599983,1406.17,16.45,0.38,1004.29,18.5,13,53.7,-12.39,-6.77,2.56,-0.04,0.06,0.66,1.8,-3.45,5.15
16444700,10,31.913957,-98.599983,1406.17,16.45,0.38,1004.13,18.5,13,53.4,-12.15,-6.96,2.69,-0.05,0.06,0.65,1.8,-3.46,5.17
16444800,10,31.913957,-98.599983,1406.17,16.45,0.02,1003.9,18.5,13,53.8,-12.45,-6.9,2.32,-0.05,0.05,0.66,1.8,-3.46,5.15
16444900,10,31.913957,-98.599983,1406.17,16.45,0.02,1003.9,18.56,13,53.8,-12.15,-6.77,2.5,-0.03,0.05,0.66,1.81,-3.43,5.16
16444900,10,31.913957,-98.599983,1406.17,16.45,0.02,1004.13,18.5,13,53.4,-12.45,-6.77,2.56,-0.05,0.05,0.66,1.8,-3.47,5.16
16445000,10,31.913957,-98.599983,1406.17,16.45,0,1004.13,18.5,13,53.8,-12.21,-6.71,2.75,-0.05,0.03,0.65,1.8,-3.45,5.16
16445100,10,31.913957,-98.599983,1406.17,16.45,0,1004.29,18.56,13.25,53.8,-12.27,-6.53,2.69,-0.03,0.03,0.67,1.8,-3.43,5.16
16445200,10,31.913957,-98.599983,1406.17,16.45,0,1004.13,18.56,13.25,0,-12.27,-6.84,2.75,-0.04,0.04,0.66,1.81,-3.43,5.15
16445200,10,31.913957,-98.599983,1406.17,16.45,0,1004.13,18.5,13.25,0,-12.08,-6.9,2.44,-0.03,0.06,0.65,1.81,-3.43,5.15
16445300,10,31.913957,-98.599983,1406.17,16.45,0,1004.13,18.5,13.25,53.4,-11.96,-7.02,2.44,-0.03,0.05,0.66,1.81,-3.45,5.17
16445400,10,31.913957,-98.599983,1406.17,16.45,0,1004.13,18.56,13.25,53.9,-12.15,-6.77,2.69,-0.03,0.05,0.66,1.82,-3.46,5.16
16445400,10,31.913957,-98.599983,1406.17,16.45,0,1004.13,18.5,12.25,53.9,-12.33,-7.02,2.69,-0.03,0.03,0.66,1.8,-3.42,5.14
16445500,10,31.913957,-98.599983,1406.17,16.45,0,1004.13,18.5,13.25,53.6,-12.39,-6.59,2.44,-0.02,0.03,0.66,1.82,-3.45,5.16
16445600,10,31.913957,-98.599983,1406.17,16.45,0,1004.13,18.5,13.25,53.6,-12.27,-6.96,2.75,-0.03,0.03,0.67,1.82,-3.43,5.15
16445700,10,31.913957,-98.599983,1406.17,16.45,0,1004.13,18.56,13.25,53.5,-12.57,-6.71,2.75,-0.03,0.04,0.66,1.82,-3.44,5.16
16445800,10,31.913957,-98.599983,1406.17,16.45,0,1004.13,18.5,13.25,53.5,-12.02,-6.96,2.56,-0.03,0.04,0.66,1.82,-3.44,5.16
16445800,10,31.913957,-98.599983,1406.17,16.45,0,1004.53,18.56,13.25,53.3,-12.21,-7.14,2.56,-0.02,0.03,0.66,1.82,-3.44,5.16
16445900,10,31.913957,-98.599983,1406.17,16.45,0,1004.13,18.56,13.25,53.8,-12.27,-6.96,2.69,-0.02,0.04,0.67,1.82,-3.45,5.16
16450000,10,31.913957,-98.599983,1406.17,16.45,0,1004.13,18.56,13.25,53.9,-12.33,-6.71,2.56,-0.02,0.05,0.67,1.83,-3.44,5.15
16450000,10,31.913957,-98.599983,1406.17,16.45,0,1003.9,18.56,13.5,53.9,-12.15,-6.77,2.56,-0.03,0.03,0.65,1.83,-3.42,5.15
16450100,10,31.913957,-98.599983,1406.17,16.45,0,1004.13,18.5,13.25,53.9,-12.21,-6.71,2.62,-0.02,0.03,0.66,1.82,-3.43,5.16
16450200,10,31.913957,-98.599983,1406.17,16.45,0,1004.13,18.56,13.5,53.6,-12.15,-6.71,2.69,-0.01,0.04,0.65,1.82,-3.47,5.18
16450300,10,31.913957,-98.599983,1407.15,16.45,0.25,1004.13,18.56,13.5,53.9,-12.08,-6.71,2.62,0.05,0.08,0.66,1.81,-3.48,5.18
16450300,10,31.913957,-98.599983,1407.15,16.45,0.25,1004.13,18.56,13.5,53.9,-12.21,-6.65,2.87,-0.07,0.07,0.65,1.81,-3.49,5.18
16450400,10,31.913957,-98.599983,1407.15,16.45,0.25,1004.13,18.56,13.5,53.5,-12.45,-6.77,2.81,-0.05,0.04,0.65,1.8,-3.48,5.16
16450500,10,31.913955,-98.599983,1406.82,16.45,0.64,1004.13,18.56,13.5,53.9,-12.27,-6.96,2.5,-0.09,0.08,0.67,1.8,-3.48,5.17
16450600,10,31.913957,-98.599983,1406.82,16.45,0.64,1004.13,18.5,13.25,53.9,-12.27,-6.9,2.44,-0.06,0.06,0.65,1.81,-3.44,5.15
16450700,10,31.913957,-98.599983,1406.82,16.45,0.01,1004.13,18.56,13.5,53.9,-12.27,-6.65,2.44,-0.03,0.07,0.65,1.81,-3.45,5.16
16450700,10,31.913957,-98.599983,1406.82,16.45,0.01,1004.13,18.56,13.5,53.5,-12.57,-6.77,2.44,-0.03,0.07,0.66,1.82,-3.46,5.17
16450800,10,31.913957,-98.599983,1406.82,16.45,0.08,1004.13,18.56,13.5,53.9,-12.15,-6.71,2.87,-0.03,0.07,0.66,1.82,-3.45,5.16
16450900,10,31.913957,-98.599983,1406.82,16.45,0.08,1004.13,18.5,12.75,53.9,-12.15,-7.08,2.69,0.01,0.05,0.68,1.83,-3.42,5.16
16450900,10,31.913957,-98.599983,1406.82,16.45,0,1004.29,18.56,13.5,53.9,-12.27,-6.77,2.62,-0.22,0.08,0.69,1.76,-3.39,5.11
16451000,10,31.913957,-98.599983,1406.82,16.45,0.31,1004.13,18.56,13.5,53.5,-12.57,-6.71,2.81,-0.02,-0.02,0.67,1.83,-3.34,5.14
16451100,10,31.913957,-98.599983,1407.15,16.45,0.31,1004.13,18.56,13.5,53.5,-12.33,-6.77,2.5,-0.01,0.06,0.77,1.84,-3.37,5.14
16451200,10,31.913957,-98.599983,1407.15,16.45,0,1004.13,18.56,13.5,53.6,-12.08,-6.84,2.62,-0.04,-0.01,0.66,1.81,-3.42,5.14
16451200,10,31.913957,-98.599983,1407.15,16.45,0,1004.29,18.56,13.5,53.6,-12.45,-6.53,2.69,0.01,0.14,0.66,1.84,-3.39,5.14
16451300,10,31.913957,-98.599983,1407.15,16.45,0,1004.29,18.56,13.5,53.4,-12.15,-6.71,2.26,-0.19,0.14,0.6,1.71,-3.44,5.11
16451400,10,31.913957,-98.599983,1407.15,16.45,0,1004.29,18.56,13.5,53.9,-12.45,-6.65,2.5,-0.12,0.04,0.65,1.75,-3.37,5.1
16451500,10,31.913959,-98.599983,1407.81,16.45,0,1004.29,18.56,13.5,53.9,-12.21,-6.96,2.44,-0.12,-0.05,0.61,1.81,-3.31,5.11
16451500,10,31.913959,-98.599983,1407.81,16.45,0,1004.29,18.56,13.75,53.9,-12.15,-6.47,2.75,-0.13,-0.03,0.68,1.79,-3.3,5.1
16451600,10,31.913959,-98.599983,1407.81,16.45,0,1004.29,18.5,13.5,53.9,-12.02,-6.84,2.62,-0.05,-0.1,0.63,1.81,-3.32,5.11
16451700,10,31.913961,-98.59999,1407.81,16.45,0.16,1004.29,18.5,13.5,53.4,-12.27,-6.65,2.56,-0.06,-0.11,0.68,1.81,-3.34,5.11
16451800,9,31.913961,-98.59999,1408.14,16.45,0.07,1004.29,18.56,13.5,54,-12.33,-6.71,2.62,-0.08,-0.01,0.51,1.81,-3.32,5.11
16451800,9,31.913961,-98.59999,1408.14,16.45,0.07,1004.13,18.56,13.5,54,-12.27,-6.71,2.5,-0.04,-0.04,0.68,1.82,-3.3,5.11
16451900,9,31.913961,-98.59999,1408.14,16.45,0.07,1004.29,18.56,13.5,53.5,-12.08,-6.77,2.69,-0.08,-0.03,0.69,1.8,-3.36,5.12
16452000,10,31.913961,-98.59999,1408.14,16.45,0,1004.29,18.56,13.5,54,-12.33,-6.84,2.75,-0.04,0,0.65,1.83,-3.38,5.13
16452100,10,31.913961,-98.59999,1408.14,16.45,0,1004.29,18.56,13.5,54,-12.21,-6.71,2.69,-0.02,0,0.63,1.86,-3.35,5.14
16452200,10,31.913961,-98.59999,1408.14,16.45,0,1004.29,18.56,13.5,54,-12.45,-6.71,2.75,-0.05,-0.01,0.66,1.81,-3.34,5.11
16452200,10,31.913961,-98.59999,1408.14,16.45,0,1004.29,18.56,13.5,53.6,-12.51,-6.9,2.75,0.01,-0.03,0.69,1.85,-3.35,5.14
16452300,10,31.913961,-98.59999,1408.14,16.45,0,1004.13,18.56,13.5,53.8,-12.33,-6.84,2.75,-0.01,-0.19,0.74,1.84,-3.32,5.14
16452400,10,31.913961,-98.59999,1408.14,16.45,0,1004.29,18.56,13.5,53.9,-12.27,-6.96,2.69,0.04,-0.04,0.62,1.89,-3.35,5.17
16452400,10,31.913961,-98.59999,1408.14,16.45,0,1004.53,18.56,13.5,53.9,-12.21,-6.9,2.81,0.03,-0.06,0.76,1.86,-3.29,5.14
16452500,10,31.913961,-98.59999,1408.14,16.45,0,1004.13,18.56,13.5,53.6,-12.45,-6.65,2.62,0.07,-0.11,0.85,1.89,-3.29,5.17
16452600,10,31.913961,-98.59999,1408.14,16.45,0,1004.29,18.56,13.5,53.6,-12.21,-6.77,2.62,0.19,0.27,0.92,1.95,-3.27,5.22
16452700,10,31.913959,-98.59999,1409.12,16.45,0.46,1004.13,18.56,13.75,53.6,-12.27,-7.02,2.69,0.09,-0.22,0.44,1.74,-3.3,5.09
16452700,10,31.913959,-98.59999,1409.12,16.45,0.46,1004.13,18.56,13.5,53.6,-12.39,-6.9,2.69,-0.06,-0.06,0.4,1.81,-3.3,5.12
16452800,10,31.913959,-98.59999,1410.1,16.45,0.46,1004.13,18.56,13.5,53.3,-12.27,-6.96,2.62,-0.04,0.05,0.58,1.8,-3.34,5.12
16452900,10,31.913957,-98.59999,1410.76,16.45,0.15,1004.13,18.56,13.5,54,-12.33,-6.71,2.5,-0.05,0,0.67,1.84,-3.37,5.14
16453000,10,31.913957,-98.59999,1411.09,16.45,0.15,1004.13,18.56,13.5,54,-12.02,-7.02,2.69,0,0,0.67,1.85,-3.36,5.14
16453000,10,31.913957,-98.59999,1411.09,16.45,0.15,1004.13,18.56,13.5,53.5,-12.51,-6.77,2.56,0.01,0,0.67,1.85,-3.35,5.14
16453100,10,31.913957,-98.59999,1411.09,16.45,0,1004.13,18.56,13.5,53.5,-12.27,-6.71,2.81,-0.01,0.04,0.61,1.85,-3.36,5.14
16453200,10,31.913957,-98.59999,1411.09,16.45,0,1004.13,18.56,11.5,53.9,-12.45,-6.71,2.81,-0.01,0,0.64,1.83,-3.39,5.14
16453300,10,31.913957,-98.59999,1410.76,16.45,0.17,1004.13,18.56,13.5,53.9,-12.45,-6.84,2.44,-0.01,0.01,0.66,1.84,-3.38,5.13
16453300,10,31.913957,-98.59999,1410.76,16.45,0.17,1004.13,18.56,13.5,53.9,-12.15,-6.71,2.5,-0.01,0.01,0.63,1.85,-3.37,5.15
16453400,10,31.913957,-98.59999,1410.76,16.45,0.17,1004.13,18.56,13.25,53.6,-12.15,-6.53,2.56,0,0.06,0.69,1.85,-3.41,5.16
16453500,10,31.913957,-98.59999,1410.76,16.45,0,1004.13,18.56,13.25,54,-12.27,-6.65,2.62,-0.01,0.08,0.64,1.85,-3.43,5.16
16453600,10,31.913957,-98.59999,1411.09,16.45,0,1004.13,18.56,13.25,54,-12.27,-7.02,2.69,-0.03,0.04,0.67,1.84,-3.41,5.14
16453700,10,31.913959,-98.59999,1411.75,16.45,0.23,1004.13,18.56,13.25,54,-12.33,-6.96,2.62,0.01,0.11,0.67,1.86,-3.4,5.17
16453700,10,31.913959,-98.59999,1411.75,16.45,0.23,1004.13,18.56,13.25,53.5,-12.15,-7.14,2.87,0,0.09,0.62,1.86,-3.41,5.17
16453800,10,31.913957,-98.59999,1411.75,16.45,0,1004.13,18.62,13.25,53.9,-12.21,-6.47,2.93,0.06,0.06,0.62,1.88,-3.43,5.19
16453900,10,31.913957,-98.59999,1411.75,16.45,0,1004.13,18.56,13.25,54,-12.39,-6.77,2.69,-0.01,0.04,0.53,1.86,-3.4,5.16
16453900,10,31.913957,-98.59999,1411.75,16.45,0,1004.29,18.56,13.25,54,-12.45,-6.84,2.5,-0.03,0.05,0.67,1.85,-3.3,5.12
16454000,10,31.913959,-98.59999,1411.75,16.45,0.21,1004.13,18.62,13.25,53.7,-12.39,-6.9,2.75,0.08,-0.08,0.62,1.85,-3.32,5.14
16454100,10,31.913961,-98.59999,1414.37,16.45,0.21,1004.29,18.56,13.25,53.7,-12.45,-6.84,2.56,0.2,0.65,0.57,1.83,-3.33,5.12
16454200,10,31.913963,-98.599998,1415.35,16.45,0.06,1004.13,18.56,13.25,53.7,-12.57,-6.71,2.56,-0.09,-0.1,0.68,1.84,-3.37,5.13
16454200,10,31.913963,-98.599998,1415.35,16.45,0.06,1003.9,18.56,13.25,53.7,-11.84,-6.96,2.87,0,0.07,0.67,1.85,-3.31,5.12
16454300,10,31.913963,-98.599998,1415.35,16.45,0.06,1004.13,18.56,13.25,53.6,-12.39,-6.71,2.44,0.06,-0.03,0.55,1.86,-3.36,5.15
16454400,10,31.913963,-98.599998,1415.35,16.45,0.3,1004.13,18.62,13.25,54.1,-12.15,-6.59,2.69,0.03,-0.05,0.71,1.83,-3.36,5.14
16454500,10,31.913965,-98.599998,1415.35,16.45,0.3,1003.9,18.56,13.25,54.1,-12.15,-6.77,2.87,0.05,-0.11,0.45,1.85,-3.25,5.11
16454500,10,31.913965,-98.599998,1415.35,16.45,0.3,1004.13,18.56,13.25,53.6,-12.51,-6.71,2.5,-0.04,-0.02,0.59,1.85,-3.25,5.12
16454600,10,31.913967,-98.59999,1415.03,16.45,0.3,1004.13,18.62,13.25,53.6,-12.33,-6.77,2.69,-0.01,-0.02,0.64,1.85,-3.24,5.12
16454700,10,31.913967,-98.59999,1414.7,16.45,0.25,1004.13,18.56,13.25,53.7,-12.21,-6.59,2.81,0.03,-0.17,0.65,1.85,-3.25,5.12
16454800,10,31.913969,-98.59999,1414.7,16.45,0.25,1004.13,18.62,13.25,53.7,-12.39,-6.65,2.69,0.03,-0.01,0.64,1.85,-3.24,5.11
16454800,10,31.913969,-98.59999,1414.7,16.45,0.25,1004.13,18.62,13.25,53.7,-12.21,-6.47,2.81,0,-0.1,0.68,1.85,-3.25,5.11
16454900,10,31.913969,-98.59999,1414.7,16.45,0.01,1003.9,18.56,13.25,53.4,-12.45,-6.65,2.5,0.02,0,0.65,1.85,-3.29,5.12
16455000,10,31.913969,-98.59999,1414.37,16.45,0.01,1004.13,18.62,13.25,54,-12.21,-6.59,2.62,0.01,-0.02,0.7,1.87,-3.27,5.13
16455000,10,31.913969,-98.59999,1414.37,16.45,0.01,1003.9,18.62,13.25,54,-12.39,-6.77,2.69,0.04,-0.13,0.74,1.86,-3.23,5.13
16455100,10,31.913969,-98.59999,1414.37,16.45,0,1004.13,18.62,13,54,-12.27,-6.65,2.69,0.06,-0.07,0.72,1.87,-3.24,5.12
16455200,10,31.913969,-98.59999,1414.37,16.45,0,1004.13,18.62,13.5,53.7,-12.27,-6.47,2.5,-0.03,-0.08,0.64,1.84,-3.27,5.11
16455300,10,31.913969,-98.59999,1414.37,16.45,0,1004.13,18.56,13.25,54,-12.21,-6.84,2.62,-0.02,-0.1,0.65,1.84,-3.27,5.11
16455400,9,31.913969,-98.59999,1414.37,16.45,0,1004.13,18.62,13.25,54,-12.51,-6.84,2.81,-0.07,-0.19,0.64,1.84,-3.28,5.08
16455400,9,31.913969,-98.59999,1414.37,16.45,0,1003.9,18.62,13.25,53.6,-12.51,-6.71,2.62,-0.04,-0.08,0.65,1.82,-3.25,5.1
16455500,9,31.913969,-98.59999,1414.37,16.45,0,1003.9,18.62,13.25,54,-12.21,-6.84,2.69,-0.02,-0.08,0.7,1.83,-3.28,5.1
16455600,10,31.913969,-98.59999,1414.37,16.45,0,1004.13,18.62,13.25,54,-12.21,-6.71,2.5,0,-0.2,0.6,1.85,-3.22,5.11
16455700,10,31.913969,-98.59999,1414.37,16.45,0,1004.29,18.62,13.25,53.6,-12.27,-7.02,2.62,0.19,0.23,0.53,1.87,-3.28,5.1
16455700,10,31.913969,-98.59999,1414.37,16.45,0,1004.13,18.62,13.25,53.6,-12.08,-6.96,2.75,0,-0.5,0.69,1.86,-3.25,5.08
16455800,10,31.913969,-98.59999,1414.37,16.45,0,1003.9,18.62,13.25,53.5,-12.21,-6.71,2.62,-0.04,-0.13,0.64,1.84,-3.29,5.08
16455900,9,31.913969,-98.59999,1414.37,16.45,0,1003.9,18.62,13.25,54.1,-12.15,-6.84,2.93,-0.01,-0.15,0.77,1.82,-3.29,5.07
16460000,10,31.913969,-98.59999,1414.37,16.45,0,1003.9,18.62,13.25,54.1,-12.33,-6.65,2.5,-0.07,-0.16,0.64,1.83,-3.26,5.07
16460000,10,31.913969,-98.59999,1414.37,16.45,0,1003.9,18.56,13,53.6,-12.21,-6.77,2.62,0,-0.04,0.71,1.85,-3.29,5.09
16460100,10,31.913969,-98.59999,1414.37,16.45,0,1004.13,18.62,13.25,53.6,-12.39,-6.65,2.93,0.05,0.05,0.55,1.89,-3.37,5.11
16460200,10,31.913969,-98.59999,1414.37,16.45,0,1003.9,18.62,13.25,53.7,-12.33,-6.59,2.44,0.05,0.07,0.59,1.91,-3.37,5.13
16460300,9,31.913969,-98.59999,1414.7,16.45,0,1004.13,18.56,13.25,53.7,-12.27,-6.65,2.56,0.07,-0.02,0.67,1.9,-3.33,5.11
16460300,9,31.913969,-98.59999,1414.7,16.45,0,1004.13,18.62,13,53.7,-12.51,-6.77,2.62,0.01,-0.01,0.69,1.89,-3.34,5.11
16460400,9,31.913967,-98.59999,1414.7,16.45,0.29,1003.9,18.62,13,53.4,-12.21,-6.96,2.56,0.01,-0.03,0.67,1.86,-3.32,5.1
16460500,10,31.913965,-98.59999,1415.03,16.45,0.69,1003.9,18.62,13,54,-12.33,-6.77,2.44,0,0.01,0.67,1.85,-3.34,5.08
16460500,10,31.913965,-98.59999,1415.03,16.45,0.69,1003.9,18.62,13.25,54,-12.15,-7.02,2.62,0.02,0.01,0.66,1.86,-3.32,5.08
16460600,9,31.913961,-98.59999,1415.35,16.45,0.51,1003.9,18.62,13.25,54,-12.39,-6.96,2.62,0.01,0.03,0.68,1.86,-3.34,5.09
16460700,10,31.913959,-98.59999,1416.34,16.45,0.51,1003.9,18.62,13.25,53.5,-12.08,-6.77,2.38,-0.01,0.03,0.68,1.87,-3.38,5.1
16460800,10,31.913959,-98.599998,1417.65,16.45,0.38,1003.9,18.62,13.25,54,-12.15,-6.59,2.56,0,0.03,0.68,1.87,-3.39,5.1
16460900,10,31.913959,-98.600006,1418.96,16.45,0.38,1004.13,18.62,13.25,54,-12.33,-6.47,2.44,0,0.01,0.64,1.87,-3.37,5.09
16460900,10,31.913959,-98.600006,1418.96,16.45,0.38,1003.9,18.62,13.25,53.6,-12.08,-6.59,2.62,-0.01,0.05,0.71,1.86,-3.39,5.09
16461000,10,31.913957,-98.600006,1418.96,16.45,0.39,1003.9,18.62,13.25,54,-12.33,-6.84,2.56,0.03,0.06,0.63,1.85,-3.4,5.11
16461100,10,31.913955,-98.599998,1419.62,16.45,0.39,1003.9,18.62,13.25,54,-12.33,-7.02,2.62,-0.01,0.14,0.68,1.86,-3.37,5.09
16461200,10,31.913957,-98.600006,1421.26,16.45,0.59,1003.9,18.62,13.25,53.6,-12.27,-6.84,2.5,0.08,0.22,0.63,1.88,-3.37,5.11
16461200,10,31.913957,-98.600006,1421.26,16.45,0.44,1003.9,18.69,13.25,53.6,-12.51,-6.9,2.56,0.08,0.08,0.67,1.89,-3.36,5.12
16461300,10,31.913957,-98.600006,1421.26,16.45,0,1004.13,18.62,13.25,53.6,-12.27,-6.9,2.69,0.12,0.15,0.61,1.9,-3.4,5.13
16461400,10,31.913957,-98.600006,1421.26,16.45,0,1003.9,18.62,13.25,54,-12.39,-6.77,2.56,0.09,0.1,0.67,1.91,-3.39,5.13
16461500,10,31.913957,-98.600006,1421.26,16.45,0,1003.9,18.62,13.25,54,-12.39,-6.84,2.62,0.04,0.14,0.6,1.88,-3.36,5.1
16461500,10,31.913957,-98.600006,1421.26,16.45,0,1003.9,18.62,13.25,53.7,-12.27,-6.65,2.81,0.03,0.19,0.62,1.86,-3.37,5.1
16461600,10,31.913957,-98.600006,1421.26,16.45,0,1003.9,18.62,13.25,53.7,-12.27,-6.96,2.44,-0.02,0.18,0.62,1.84,-3.35,5.08
16461700,10,31.913959,-98.600006,1421.92,16.45,0.1,1004.13,18.62,13.25,53.4,-12.27,-6.65,2.5,0,0.11,0.67,1.86,-3.38,5.11
16461800,10,31.913959,-98.600006,1421.92,16.45,0.1,1004.29,18.62,13,53.4,-12.39,-6.84,2.56,0.01,0.15,0.67,1.88,-3.36,5.11
16461800,10,31.913959,-98.600006,1421.92,16.45,0.1,1004.13,18.62,13,53.6,-12.51,-6.77,2.81,0.02,0.13,0.61,1.86,-3.37,5.11
16461900,10,31.913959,-98.600006,1421.92,16.45,0,1004.13,18.62,13,54,-12.33,-6.47,2.38,0.03,0.1,0.69,1.89,-3.4,5.12
16462000,10,31.913959,-98.600006,1421.92,16.45,0,1003.9,18.62,13,54.1,-12.51,-6.53,2.44,0.06,0.05,0.75,1.87,-3.36,5.12
16462000,10,31.913959,-98.600006,1421.92,16.45,0,1004.13,18.69,13,54.1,-12.51,-6.96,2.56,0,0.08,0.65,1.86,-3.37,5.09
16462100,10,31.913961,-98.600013,1422.9,16.45,0.07,1004.29,18.62,13,54.1,-12.39,-6.84,2.75,-0.05,0.09,0.63,1.83,-3.33,5.07
16462200,10,31.913959,-98.600006,1422.24,16.45,0.07,1004.13,18.62,13,53.7,-12.27,-6.84,2.56,-0.01,0.06,0.67,1.84,-3.35,5.08
16462300,10,31.913959,-98.600006,1422.24,16.45,0.01,1004.13,18.69,13,54,-11.84,-6.77,2.69,0,0.13,0.61,1.85,-3.35,5.1
16462400,10,31.913963,-98.600006,1422.57,16.45,0.01,1004.13,18.62,13,54,-12.33,-6.77,2.56,-0.02,0.05,0.69,1.85,-3.34,5.08
16462400,10,31.913963,-98.600006,1422.57,16.45,0.01,1004.13,18.62,13,53.5,-11.96,-6.53,2.69,-0.04,0.07,0.64,1.85,-3.36,5.09
16462500,10,31.913963,-98.600006,1422.57,16.45,0.01,1004.13,18.69,13,54.1,-12.27,-6.53,2.69,-0.04,0.09,0.64,1.84,-3.37,5.09
16462600,10,31.913963,-98.600006,1422.57,16.45,0.01,1004.13,18.62,13,54.1,-12.45,-6.71,2.69,-0.01,0.03,0.67,1.86,-3.35,5.09
16462700,10,31.913963,-98.600006,1422.57,16.45,0,1004.29,18.69,12.75,54.1,-12.27,-6.47,2.44,-0.01,0.03,0.68,1.85,-3.36,5.09
16462700,10,31.913963,-98.600006,1422.57,16.45,0,1004.29,18.69,12.75,54.1,-12.51,-6.71,2.81,-0.02,0.04,0.65,1.87,-3.36,5.1
16462800,10,31.913965,-98.599998,1422.57,16.45,0.26,1004.29,18.62,12.75,53.7,-12.21,-6.96,2.69,0.01,0.06,0.67,1.87,-3.39,5.11
16462900,10,31.913965,-98.599998,1422.57,16.45,0,1004.29,18.69,12.75,54.1,-12.02,-6.96,2.87,-0.02,0.02,0.68,1.89,-3.42,5.13
16462900,10,31.913965,-98.599998,1422.57,16.45,0,1004.29,18.69,13,54.1,-12.39,-6.84,2.75,0.04,0.12,0.65,1.89,-3.4,5.12
16463000,10,31.913965,-98.599998,1422.57,16.45,0,1004.29,18.69,13,53.5,-12.51,-6.65,2.75,0.07,0.11,0.68,1.91,-3.45,5.15
16463100,10,31.913965,-98.599998,1422.57,16.45,0,1004.13,18.69,13,53.5,-11.9,-6.96,2.26,0.07,-0.12,0.46,1.91,-3.43,5.14
16463200,10,31.913963,-98.599998,1422.24,16.45,0.18,1004.29,18.69,10,53.7,-12.33,-6.9,2.38,0.02,-0.44,1.31,1.82,-3.38,5.09
16463300,10,31.913963,-98.599998,1422.24,16.45,0.18,1004.29,18.69,13,53.7,-12.39,-6.9,2.62,-0.06,0.19,0.6,1.83,-3.36,5.08
16463300,10,31.913963,-98.599998,1422.24,16.45,0.18,1004.29,18.69,13,53.6,-12.45,-7.02,2.56,-0.03,0.19,0.58,1.85,-3.36,5.09
16463400,10,31.913961,-98.599998,1421.92,16.45,0.23,1004.13,18.62,13,54,-12.33,-6.84,2.44,0.03,-0.02,0.61,1.87,-3.31,5.1
16463500,10,31.913961,-98.599998,1421.92,16.45,0.05,1004.13,18.69,13,54,-12.15,-6.77,2.81,-0.04,0,0.6,1.85,-3.35,5.09
16463500,10,31.913961,-98.599998,1421.92,16.45,0.05,1004.29,18.69,13,54,-12.51,-6.9,2.62,-0.04,0.14,0.64,1.82,-3.33,5.07
16463600,10,31.913961,-98.599998,1421.92,16.45,0,1004.29,18.62,13,54,-12.21,-6.84,2.87,0.04,0.02,0.65,1.87,-3.38,5.09
16463700,10,31.913961,-98.599998,1421.92,16.45,0,1004.29,18.69,13,53.7,-12.39,-6.71,2.5,-0.06,0.1,0.64,1.84,-3.44,5.09
16463800,10,31.913961,-98.599998,1421.59,16.45,0.31,1004.13,18.69,13,54,-12.7,-6.77,2.62,0,0.08,0.61,1.81,-3.55,5.14
16463800,10,31.913961,-98.599998,1421.59,16.45,0.31,1004.29,18.69,13,54,-12.21,-6.9,2.44,0.02,0.1,0.67,1.81,-3.54,5.14
16463900,10,31.913961,-98.599998,1421.59,16.45,0.31,1004.13,18.69,13,53.7,-12.27,-6.65,2.44,-0.01,0.06,0.67,1.8,-3.56,5.14
16464000,10,31.913963,-98.59999,1420.6,16.45,0.39,1004.29,18.69,13,54,-12.51,-6.96,2.62,0.01,0.05,0.7,1.79,-3.56,5.15
16464100,10,31.913965,-98.59999,1419.95,16.45,0.39,1004.29,18.69,10.75,54,-12.39,-6.77,2.81,0.02,0.1,0.68,1.8,-3.54,5.14
16464200,10,31.913965,-98.59999,1419.62,16.45,0.33,1004.13,18.69,13.25,54,-12.21,-6.65,2.93,0.02,0.09,0.66,1.8,-3.54,5.14
16464200,10,31.913965,-98.59999,1419.62,16.45,0,1004.29,18.69,13.25,53.4,-12.45,-6.71,2.69,-0.02,0.12,0.64,1.78,-3.57,5.14
16464300,10,31.913965,-98.59999,1419.62,16.45,0,1004.29,18.69,13.25,54,-12.15,-6.9,2.5,-0.12,-0.02,0.74,1.79,-3.56,5.13
16464400,10,31.913965,-98.59999,1419.62,16.45,0,1004.29,18.69,13.25,54,-12.27,-6.59,2.75,-0.08,0.02,0.65,1.74,-3.53,5.09
16464400,10,31.913965,-98.59999,1419.62,16.45,0,1004.13,18.69,13.25,54,-12.21,-6.96,2.56,-0.01,0,0.74,1.66,-3.59,5.04
16464500,10,31.913961,-98.599983,1419.62,16.45,0.14,1004.13,18.69,13.25,53.6,-12.51,-6.65,2.5,-0.11,0.04,0.65,1.48,-3.58,5.08
16464600,10,31.913961,-98.599983,1418.31,16.45,0.14,1004.13,18.69,13.25,53.6,-12.33,-6.84,2.56,-0.13,0.02,0.52,1.46,-3.6,5.1
16464700,10,31.913961,-98.599983,1418.31,16.45,0.09,1004.13,18.69,13.25,53.7,-12.39,-6.77,2.44,-0.11,-0.04,0.6,1.44,-3.52,5.05
16464700,10,31.913961,-98.599983,1418.31,16.45,0.09,1004.29,18.69,13,53.7,-12.21,-7.14,2.56,-0.09,-0.17,0.54,1.45,-3.51,5.05
16464800,10,31.913963,-98.599983,1417.98,16.45,0.09,1004.29,18.69,13,53.7,-12.21,-6.65,2.81,-0.01,0.01,0.58,1.5,-3.64,5.11
16464900,10,31.913965,-98.599975,1417.98,16.45,0.41,1004.13,18.69,13,54.1,-12.39,-6.96,2.56,0.05,0.1,0.69,1.53,-3.6,5.06
16465000,10,31.913967,-98.599983,1417.98,16.45,0.41,1004.13,18.69,13,54.1,-12.08,-6.9,2.56,-0.04,0.03,0.65,1.46,-3.56,5.08
16465000,10,31.913967,-98.599983,1417.98,16.45,0.41,1004.13,18.69,13,54.1,-12.15,-7.02,2.44,-0.06,0,0.66,1.48,-3.54,5.05
16465100,10,31.913967,-98.599983,1417.98,16.45,0.3,1004.13,18.69,13,53.7,-12.21,-6.84,2.38,-0.07,0.01,0.65,1.44,-3.51,5.07
16465200,10,31.913967,-98.599983,1417.98,16.45,0,1004.29,18.69,13,54.1,-12.21,-6.77,2.32,-0.09,0.02,0.68,1.45,-3.57,5.09
16465300,10,31.913967,-98.599983,1418.64,16.45,0.16,1004.29,18.69,13,54,-12.27,-6.65,2.5,-0.04,0.06,0.64,1.46,-3.55,5.08
16465300,10,31.913967,-98.599983,1418.64,16.45,0.16,1004.13,18.69,13,54,-12.27,-7.02,2.93,-0.04,0.01,0.67,1.44,-3.51,5.06
16465400,10,31.913969,-98.599983,1419.62,16.45,0.16,1004.13,18.69,13,53.4,-12.39,-7.14,2.56,-0.02,0.08,0.66,1.46,-3.52,5.06
16465500,10,31.913969,-98.599983,1419.62,16.45,0.01,1004.13,18.69,13,54,-12.33,-6.59,2.5,-0.1,0,0.64,1.53,-3.62,5.1
16465600,10,31.913967,-98.599983,1418.96,16.45,0.01,1004.13,18.69,13,54,-12.39,-6.71,2.87,-0.05,0.11,0.81,1.49,-3.56,5.07
16465700,10,31.913967,-98.599983,1418.64,16.45,0.22,1004.13,18.69,13,54,-12.33,-6.96,2.44,-0.14,0.01,0.71,1.52,-3.58,5.07
16465700,10,31.913967,-98.599983,1418.64,16.45,0.22,1004.29,18.69,13,54,-12.27,-6.77,2.62,-0.05,0.01,0.67,1.53,-3.56,5.06
16465800,10,31.913965,-98.599983,1418.64,16.45,0.22,1004.13,18.75,13,53.6,-12.33,-6.71,2.69,-0.12,0.08,0.69,1.54,-3.64,5.12
16465900,10,31.913965,-98.599983,1417.98,16.45,0.18,1004.29,18.69,13,54,-12.15,-7.02,2.69,-0.08,0.13,0.62,1.46,-3.58,5.11
16465900,10,31.913965,-98.599983,1417.98,16.45,0.18,1004.13,18.69,13,54,-12.33,-6.65,2.2,0.03,-0.19,0.66,1.47,-3.58,5.09
16470000,10,31.913965,-98.599983,1417.98,16.45,0.18,1004.13,18.69,13,53.5,-12.27,-6.84,2.81,0,0.46,0.78,1.48,-3.65,5.18
16470100,10,31.913963,-98.599983,1417.65,16.45,0.18,1004.29,18.69,13,53.5,-12.39,-6.65,2.44,-0.11,-0.05,0.65,1.45,-3.54,5.09
16470200,10,31.913961,-98.599983,1417.65,16.45,0.09,1004.13,18.75,13,53.7,-12.39,-6.9,2.56,-0.21,0.13,0.7,1.49,-3.66,5.24
16470300,10,31.913963,-98.599975,1416.99,16.45,0.09,1004.13,18.75,13,53.7,-12.45,-6.59,2.62,-0.47,-0.25,0.62,1.42,-3.56,5.07
16470300,10,31.913963,-98.599975,1416.99,16.45,0.09,1004.29,18.69,12.75,53.8,-12.15,-6.9,2.81,-0.25,0.22,0.6,1.37,-3.58,5.23
16470400,10,31.913961,-98.599975,1416.99,16.45,0.26,1003.9,18.69,13,54,-12.45,-6.65,2.56,-0.38,0.13,0.63,1.35,-3.63,5.23
16470500,9,31.913961,-98.599975,1416.67,16.45,0.01,1004.13,18.75,13,54,-12.33,-6.84,2.69,-0.31,0,0.77,1.37,-3.57,5.14
16470500,9,31.913961,-98.599975,1416.67,16.45,0.01,1003.9,18.75,13,54,-12.21,-6.71,2.75,-0.18,0.17,0.56,1.38,-3.56,5.12
16470600,10,31.913963,-98.599975,1416.01,16.45,0.02,1003.9,18.69,13,54,-12.27,-6.84,2.75,-0.24,0.26,0.57,1.32,-3.49,5.16
16470700,10,31.913963,-98.599983,1416.01,16.45,0.02,1004.13,18.69,12.75,53.6,-12.39,-6.77,2.69,-0.16,-0.02,0.66,1.35,-3.54,5.17
16470800,10,31.913965,-98.599983,1416.01,16.45,0.05,1003.9,18.69,12.75,53.9,-12.21,-6.71,2.44,-0.26,0.07,0.47,1.36,-3.53,5.16
16470900,10,31.913965,-98.599983,1416.01,16.45,0.05,1004.13,18.69,12.75,53.9,-12.33,-6.9,2.62,-0.16,0.08,0.59,1.38,-3.52,5.16
16470900,10,31.913965,-98.599983,1416.01,16.45,0.05,1004.29,18.75,12.75,53.5,-12.27,-7.02,2.56,-0.16,0.05,0.65,1.55,-3.55,5.12
16471000,10,31.913967,-98.599983,1415.68,16.45,0.1,1004.29,18.75,13,53.9,-12.27,-6.77,2.75,-0.13,-0.01,0.66,1.62,-3.48,5.06
16471100,9,31.913967,-98.599983,1415.35,16.45,0.1,1004.29,18.75,13,53.9,-12.27,-7.39,2.56,-0.09,-0.05,0.64,1.7,-3.46,5.06
16471200,10,31.913965,-98.599983,1413.71,16.45,0.25,1004.13,18.75,13,53.5,-12.45,-6.77,2.69,0.01,0.03,0.65,1.78,-3.49,5.1
16471200,10,31.913965,-98.599983,1413.71,16.45,0.06,1004.29,18.69,13,53.5,-12.15,-6.77,2.62,0.03,0.02,0.65,1.81,-3.46,5.11
16471300,10,31.913963,-98.599975,1413.71,16.45,0.21,1004.13,18.75,13,53.5,-12.33,-6.9,2.44,0.04,0.01,0.63,1.81,-3.47,5.11
16471400,10,31.913961,-98.599975,1412.07,16.45,0.09,1004.13,18.75,13,53.9,-12.27,-6.59,2.69,-0.2,-0.08,0.62,1.82,-3.5,5.12
16471400,10,31.913961,-98.599975,1412.07,16.45,0.09,1004.29,18.75,13.25,53.9,-12.27,-6.84,2.44,0.42,-0.16,0.25,1.9,-3.61,5.08
16471500,10,31.913961,-98.599967,1410.76,16.45,0.09,1004.13,18.75,13.25,53.3,-12.63,-6.96,2.32,0.07,0.09,0.49,1.93,-3.58,5.12
16471600,10,31.913961,-98.599967,1410.76,16.45,0.09,1004.13,18.69,13.25,53.3,-12.33,-6.71,2.38,0.06,0.01,0.66,1.87,-3.55,5.04
16471700,10,31.913961,-98.599967,1410.76,16.45,0.01,1004.13,18.75,13.25,53.5,-12.39,-6.96,2.69,0,0.02,0.63,1.86,-3.52,5.03
16471800,10,31.913961,-98.599967,1410.76,16.45,0.01,1004.13,18.75,13.25,53.5,-12.45,-6.71,2.26,-0.1,0.05,0.68,1.8,-3.54,5
16471800,10,31.913961,-98.599967,1410.76,16.45,0.01,1004.13,18.75,13.25,53.5,-12.33,-6.77,2.56,0.06,0.03,0.68,1.86,-3.52,5.02
16471900,10,31.913961,-98.599967,1410.76,16.45,0,1004.13,18.75,13.25,53.5,-12.57,-6.71,2.69,0.12,-0.01,0.66,1.89,-3.51,5.04
16472000,10,31.913961,-98.599967,1410.76,16.45,0,1004.13,18.75,13.25,54,-12.08,-6.59,2.44,0.13,0.04,0.73,1.79,-3.48,5.17
16472000,10,31.913961,-98.599967,1410.76,16.45,0,1004.13,18.75,13.25,54,-12.39,-6.71,2.69,-0.06,0.1,0.51,1.73,-3.48,5.15
16472100,10,31.913961,-98.599967,1410.76,16.45,0,1004.13,18.75,13.25,54,-12.45,-6.71,2.69,-0.27,0.49,0.61,1.86,-3.93,4.49
16472200,10,31.913965,-98.599967,1410.1,16.45,0,1004.29,18.75,13.5,53.4,-12.33,-6.53,2.62,-0.38,0.04,0.66,2.13,-4.47,3.69
16472300,10,31.913965,-98.599967,1409.78,16.45,0.37,1004.29,18.75,13.5,53.9,-12.21,-7.02,2.44,-0.16,0.07,0.62,2.14,-4.49,3.63
16472400,10,31.91397,-98.599967,1411.09,16.45,0.37,1004.29,18.75,13.5,53.9,-12.45,-6.96,2.62,-0.13,0.12,0.65,2.17,-4.47,3.63
16472400,10,31.91397,-98.599967,1411.09,16.45,0.37,1004.29,18.75,13.5,53.6,-12.21,-6.84,2.62,-0.02,0.03,0.68,2.2,-4.48,3.64
16472500,10,31.91397,-98.599967,1411.09,16.45,0.01,1004.29,18.81,13.5,53.9,-12.21,-7.08,2.69,0.15,-0.15,0.69,2.22,-4.5,3.64
16472600,10,31.913969,-98.599967,1411.09,16.45,0.01,1004.29,18.75,13.5,53.9,-12.21,-6.77,2.5,0.1,-0.06,0.63,2.18,-4.55,3.66
16472700,10,31.913969,-98.599967,1410.76,16.45,0.13,1004.29,18.75,13.5,53.5,-12.33,-7.02,2.5,-0.05,0.08,0.64,2.1,-4.59,3.65
16472700,10,31.913969,-98.599967,1410.76,16.45,0.13,1004.29,18.75,13.5,53.5,-12.39,-7.2,2.5,0.06,-0.02,0.76,2.08,-4.54,3.62
16472800,10,31.913967,-98.599967,1410.76,16.45,0.13,1004.29,18.75,13.5,53.6,-12.33,-6.96,2.69,0.12,-0.05,0.43,2.2,-4.5,3.79
16472900,10,31.913967,-98.599967,1410.76,16.45,0,1004.29,18.75,13.5,53.9,-12.45,-6.77,2.62,0.07,0.05,0.63,2.2,-4.54,3.69
16473000,10,31.913965,-98.599967,1410.76,16.45,0,1004.29,18.75,13.5,53.9,-12.39,-6.71,2.69,0.14,-0.06,0.6,2.21,-4.46,3.65
16473000,10,31.913965,-98.599967,1410.76,16.45,0,1004.29,18.81,13.5,53.6,-12.39,-6.59,2.62,-0.15,0.31,0.5,2.18,-4.53,3.69
16473100,10,31.913965,-98.599967,1410.76,16.45,0.22,1004.13,18.75,13.5,53.9,-12.39,-6.96,2.62,0.03,-0.11,0.49,2.02,-4.49,3.66
16473200,10,31.913965,-98.599967,1410.76,16.45,0,1004.29,18.75,11.25,54,-12.08,-6.53,2.44,0.02,0.06,0.8,2.01,-4.51,3.68
16473300,10,31.913965,-98.599967,1410.76,16.45,0,1004.29,18.75,13.5,54,-12.33,-6.84,2.26,-0.02,-0.06,0.73,1.84,-4.56,3.71
16473300,10,31.913965,-98.599967,1410.76,16.45,0,1004.53,18.75,13.5,54,-12.39,-6.71,2.69,0.11,0,0.87,1.88,-4.55,3.71
16473400,10,31.913965,-98.599967,1410.76,16.45,0.29,1004.13,18.75,13.5,54,-12.45,-6.9,3.05,0.04,0.02,0.55,1.97,-4.6,3.65
16473500,10,31.913965,-98.599967,1410.43,16.45,0,1004.53,18.75,13.5,54,-12.33,-6.77,2.75,0.05,-0.05,0.59,1.96,-4.59,3.66
16473500,10,31.913965,-98.599967,1410.43,16.45,0,1004.53,18.81,13.5,54,-12.39,-6.84,2.62,0.03,0.05,0.67,2,-4.58,3.65
16473600,10,31.913965,-98.599967,1410.43,16.45,0,1004.29,18.75,13.5,54,-12.45,-6.84,2.44,-0.02,0.02,0.68,1.96,-4.59,3.66
16473700,10,31.913965,-98.599967,1410.43,16.45,0,1004.29,18.81,13.75,53.4,-12.08,-6.71,2.38,0.05,0.08,0.68,2.02,-4.7,3.63
16473800,10,31.913969,-98.599967,1409.78,16.45,0.08,1004.29,18.75,13.75,53.9,-12.33,-7.08,2.38,-0.07,0.14,0.68,1.93,-4.66,3.55
16473900,10,31.91397,-98.599967,1409.12,16.45,0.08,1004.53,18.75,13.75,53.9,-12.21,-6.84,2.56,-0.06,0.06,0.64,1.94,-4.64,3.54
16473900,10,31.91397,-98.599967,1409.12,16.45,0.08,1004.13,18.81,13.75,53.5,-12.21,-6.71,2.5,-0.07,0.06,0.67,1.95,-4.66,3.54
16474000,10,31.91397,-98.59996,1408.79,16.45,0.18,1004.13,18.75,13.75,53.9,-12.45,-6.84,2.75,-0.06,0.06,0.66,1.96,-4.66,3.55
16474100,10,31.913972,-98.59996,1408.46,16.45,0.18,1004.29,18.81,13.75,53.9,-12.51,-6.65,2.5,-0.03,0.08,0.64,1.99,-4.65,3.54
16474200,10,31.913974,-98.59996,1407.81,16.45,0.14,1004.13,18.81,13.75,53.5,-12.45,-7.14,2.99,0,0.1,0.66,2.01,-4.67,3.57
16474200,10,31.913974,-98.59996,1407.81,16.45,0.14,1004.13,18.75,13.75,53.5,-12.51,-6.96,2.56,0.01,0.08,0.67,2.01,-4.64,3.54
16474300,10,31.913974,-98.59996,1407.81,16.45,0.01,1004.29,18.75,13.5,53.5,-12.45,-6.96,2.5,0.01,0.05,0.69,2.01,-4.66,3.55
16474400,10,31.913974,-98.59996,1407.81,16.45,0,1004.13,18.75,13.75,53.9,-12.33,-6.41,2.81,0,0.06,0.67,2.01,-4.67,3.56
16474400,10,31.913974,-98.59996,1407.81,16.45,0,1004.29,18.81,13.75,53.9,-12.39,-6.77,2.56,-0.01,0.08,0.65,2.01,-4.65,3.54
16474500,10,31.913974,-98.59996,1407.81,16.45,0,1004.13,18.81,13.75,53.6,-12.33,-6.9,2.62,-0.04,0.11,0.65,2.02,-4.66,3.56
16474600,10,31.913974,-98.59996,1407.81,16.45,0,1004.53,18.81,13.75,53.6,-12.33,-6.84,2.62,0,0.09,0.67,2.01,-4.66,3.55
16474700,10,31.913974,-98.59996,1407.81,16.45,0,1004.13,18.75,14,53.6,-12.33,-6.84,2.38,0.01,0.04,0.6,2.02,-4.68,3.54
16474800,10,31.913974,-98.59996,1407.81,16.45,0,1004.13,18.81,14,53.6,-12.08,-6.71,2.56,0.02,0.14,0.69,2.02,-4.66,3.53
16474800,10,31.913974,-98.59996,1407.81,16.45,0,1004.13,18.75,14,53.6,-12.33,-6.71,2.56,0.02,0.09,0.66,2.02,-4.68,3.54
16474900,10,31.913974,-98.59996,1407.81,16.45,0,1004.29,18.75,14,54,-12.33,-6.9,2.56,0.01,0.12,0.66,2,-4.69,3.55
16475000,10,31.913974,-98.59996,1407.81,16.45,0,1004.13,18.75,14,54,-12.21,-7.02,2.5,-0.01,0.16,0.78,1.98,-4.69,3.54
16475000,10,31.913974,-98.59996,1407.81,16.45,0,1004.13,18.81,14,54,-12.33,-6.71,2.62,0.03,0.12,0.7,1.98,-4.66,3.53
16475100,10,31.913974,-98.59996,1407.81,16.45,0,1004.29,18.81,14,54,-12.45,-6.59,2.69,0,0.07,0.67,2.03,-4.66,3.53
16475200,10,31.913974,-98.59996,1407.81,16.45,0,1004.29,18.75,13.75,53.6,-12.27,-6.96,2.56,-0.03,-0.31,0.86,2,-4.57,3.62
16475300,10,31.913974,-98.59996,1407.81,16.45,0,1004.13,18.81,13.75,54,-12.45,-6.77,2.75,0.03,0.07,0.62,1.97,-4.58,3.62
16475300,10,31.913974,-98.59996,1407.81,16.45,0,1004.13,18.81,13.75,54,-12.33,-6.71,2.69,-0.04,0.21,0.95,2.12,-4.54,3.64
16475400,10,31.913974,-98.59996,1407.81,16.45,0,1004.29,18.81,13.75,53.5,-12.21,-6.77,2.81,0.12,0.1,0.64,2.07,-4.64,3.55
16475500,10,31.913978,-98.59996,1408.14,16.45,0.17,1004.13,18.81,13.75,54,-12.39,-7.08,2.75,0,0.08,0.8,2.1,-4.59,3.54
16475600,10,31.913982,-98.59996,1408.79,16.45,0.17,1004.13,18.81,13.75,54,-12.21,-6.59,2.5,0.08,0.01,0.69,2.12,-4.57,3.54
16475700,10,31.913982,-98.59996,1409.45,16.45,0.23,1004.13,18.81,13.75,54,-12.57,-6.71,2.5,0.15,0.02,0.65,2.17,-4.54,3.56
16475700,10,31.913982,-98.59996,1409.45,16.45,0.14,1004.13,18.81,13.75,54,-12.21,-6.65,2.44,0.09,0.09,0.64,2.24,-4.47,3.58
16475800,10,31.913982,-98.59996,1409.45,16.45,0.17,1004.13,18.81,13.75,53.6,-12.27,-6.77,2.69,-0.04,0.04,0.62,2.07,-4.55,3.51
16475900,10,31.913982,-98.599967,1411.09,16.45,0.24,1004.13,18.81,13.5,54,-12.51,-6.84,2.93,-0.01,-0.05,0.69,2.09,-4.54,3.52
16475900,10,31.913982,-98.599967,1411.09,16.45,0.24,1004.13,18.81,13.75,54,-12.63,-6.59,2.32,-0.03,0.1,0.61,2.12,-4.51,3.51
16480000,10,31.913982,-98.599967,1411.09,16.45,0.24,1004.13,18.81,13.5,53.5,-12.51,-6.96,2.56,0,-0.02,0.68,2.1,-4.55,3.52
16480100,9,31.913982,-98.599967,1411.09,16.45,0.24,1004.29,18.81,13.5,53.5,-12.27,-6.35,2.81,-0.12,-0.01,0.65,2.1,-4.53,3.51
16480200,9,31.913982,-98.599967,1410.43,16.45,0.25,1004.29,18.81,13.5,53.6,-12.39,-6.84,2.62,-0.01,0,0.68,2.1,-4.55,3.52
16480300,10,31.913982,-98.599967,1410.43,16.45,0.25,1004.13,18.81,13.5,53.6,-12.57,-6.96,2.32,-0.03,0.01,0.68,2.11,-4.52,3.52
16480300,10,31.913982,-98.599967,1410.43,16.45,0.25,1004.13,18.81,13.5,53.6,-12.45,-6.59,2.38,-0.01,0.02,0.71,2.11,-4.53,3.51
16480400,9,31.913982,-98.599967,1410.1,16.45,0.2,1004.13,18.81,13.5,53.9,-12.45,-6.96,2.75,-0.03,0.01,0.64,2.1,-4.54,3.52
16480500,9,31.913982,-98.599967,1409.45,16.45,0.14,1004.13,18.81,13.5,53.9,-12.27,-6.65,2.56,-0.06,0,0.67,2.08,-4.54,3.5
16480500,9,31.913982,-98.599967,1409.45,16.45,0.14,1004.13,18.81,13.5,53.9,-12.27,-6.77,2.87,-0.06,0.02,0.65,2.11,-4.5,3.5
16480600,9,31.913982,-98.599967,1409.45,16.45,0.28,1004.13,18.81,13.25,53.9,-12.21,-7.02,2.44,-0.06,0,0.65,2.1,-4.51,3.5
16480700,9,31.913982,-98.59996,1409.45,16.45,0.14,1004.13,18.81,13.5,53.6,-12.15,-6.9,2.56,-0.14,0.03,0.73,2.07,-4.52,3.5
16480800,9,31.91398,-98.59996,1407.81,16.45,0.15,1004.13,18.81,13.5,54,-12.21,-6.84,2.62,-0.11,0.06,0.68,2.07,-4.53,3.49
16480800,9,31.91398,-98.59996,1407.81,16.45,0.15,1004.13,18.87,13.5,54,-12.51,-6.59,2.5,-0.06,-0.08,0.73,2.11,-4.5,3.5
16480900,9,31.91398,-98.59996,1407.48,16.45,0.15,1004.13,18.81,13.5,53.5,-12.39,-6.77,2.5,-0.03,0.02,0.68,2.1,-4.52,3.51
16481000,9,31.913978,-98.59996,1407.15,16.45,0.17,1004.13,18.81,13.5,54,-12.21,-6.59,2.69,-0.04,-0.01,0.65,2.11,-4.51,3.51
16481100,10,31.913978,-98.59996,1406.5,16.45,0.17,1004.13,18.81,13.5,54,-12.21,-6.47,2.75,-0.02,0.12,0.66,2.12,-4.5,3.5
16481200,10,31.913978,-98.59996,1406.82,16.45,0.03,1004.13,18.81,13.25,54,-12.57,-7.02,2.56,-0.05,0,0.63,2.11,-4.51,3.5
16481200,10,31.913978,-98.59996,1406.82,16.45,0.03,1004.29,18.87,13.25,53.7,-12.08,-6.71,2.87,-0.02,0.01,0.67,2.13,-4.51,3.51
16481300,10,31.913976,-98.59996,1406.5,16.45,0.22,1004.13,18.81,13.25,54,-12.39,-6.59,2.62,-0.01,0.02,0.65,2.13,-4.52,3.51
16481400,10,31.913976,-98.59996,1406.5,16.45,0.22,1004.13,18.87,13.25,54.1,-12.21,-6.77,2.62,-0.02,0.01,0.67,2.13,-4.5,3.51
16481400,10,31.913976,-98.59996,1406.5,16.45,0.01,1004.13,18.81,9.25,54.1,-12.39,-6.77,2.56,0,0.02,0.65,2.13,-4.49,3.51
16481500,10,31.913974,-98.599967,1406.5,16.45,0.07,1004.13,18.81,12.75,53.7,-12.33,-6.84,2.5,0,0.01,0.65,2.13,-4.52,3.52
16481600,10,31.913974,-98.599967,1406.17,16.45,0.07,1004.13,18.81,13,53.7,-12.63,-6.71,2.81,-0.01,0,0.66,2.11,-4.5,3.51
16481700,10,31.913974,-98.599967,1406.17,16.45,0,1004.13,18.87,13,53.7,-12.45,-7.14,2.69,-0.01,0.02,0.66,2.12,-4.52,3.52
16481800,10,31.913974,-98.599967,1406.17,16.45,0,1004.13,18.81,13,53.7,-12.33,-7.08,2.69,-0.04,0.01,0.67,2.1,-4.5,3.5
16481800,10,31.913974,-98.599967,1406.17,16.45,0,1004.13,18.81,13,53.7,-12.27,-6.53,2.44,-0.08,0.04,0.61,2.08,-4.54,3.51
16481900,10,31.913974,-98.599967,1405.84,16.45,0,1004.13,18.87,13,54.1,-12.51,-6.96,2.62,-0.05,0.05,0.45,2.08,-4.59,3.55
16482000,10,31.913974,-98.599967,1405.51,16.45,0,1003.9,18.87,13,54.1,-12.27,-6.77,2.5,-0.02,0.02,0.6,2.15,-4.48,3.51
16482000,10,31.913974,-98.599967,1405.51,16.45,0.08,1004.13,18.87,13,54.1,-12.39,-6.53,2.38,-0.06,0.01,0.65,2.12,-4.44,3.49
16482100,10,31.913974,-98.599967,1405.51,16.45,0.23,1004.13,18.87,13,54.1,-12.02,-6.53,2.44,-0.09,0.01,0.6,2.12,-4.42,3.47
16482200,10,31.913972,-98.599967,1405.51,16.45,0.12,1004.13,18.87,13,53.8,-12.51,-6.77,2.5,-0.11,0.02,0.64,2.11,-4.44,3.48
16482300,10,31.913972,-98.599967,1405.51,16.45,0,1004.13,18.81,13,54.1,-12.02,-6.65,2.93,-0.1,-0.01,0.67,2.11,-4.44,3.49
16482300,10,31.913972,-98.599967,1405.51,16.45,0,1004.13,18.87,13,54.1,-12.27,-6.77,2.81,-0.1,0.01,0.63,2.1,-4.43,3.48
16482400,9,31.913972,-98.599967,1405.51,16.45,0,1003.9,18.81,12.5,53.7,-12.39,-6.41,2.5,-0.08,0,0.62,2.12,-4.44,3.48
16482500,9,31.913972,-98.599967,1405.51,16.45,0,1004.13,18.87,13,54.1,-12.21,-7.02,2.69,-0.06,-0.01,0.68,2.13,-4.42,3.49
16482600,10,31.913972,-98.599967,1405.51,16.45,0,1004.13,18.81,13,54.1,-11.96,-6.65,2.62,-0.03,0.02,0.67,2.14,-4.41,3.49
16482700,10,31.913972,-98.599967,1405.51,16.45,0,1004.13,18.81,13,54.1,-12.33,-6.96,2.44,-0.06,0.01,0.66,2.13,-4.4,3.48
16482700,10,31.913972,-98.599967,1405.51,16.45,0,1003.9,18.87,13,54.1,-12.33,-6.9,2.62,-0.08,0.01,0.66,2.12,-4.4,3.48
16482800,10,31.91397,-98.599967,1405.51,16.45,0.21,1004.13,18.81,13,54.1,-12.33,-6.65,2.56,-0.08,0,0.67,2.11,-4.43,3.49
16482900,10,31.91397,-98.599967,1405.84,16.45,0.02,1003.9,18.87,13,54.1,-12.08,-6.77,2.5,-0.08,0,0.64,2.11,-4.43,3.48
16482900,10,31.91397,-98.599967,1405.84,16.45,0.02,1004.13,18.87,13,54.1,-12.39,-6.84,2.75,-0.09,0.01,0.65,2.1,-4.42,3.47
16483000,10,31.91397,-98.599967,1405.84,16.45,0.01,1004.13,18.87,13,53.6,-12.33,-6.65,2.87,-0.1,0.02,0.64,2.1,-4.43,3.48
16483100,10,31.91397,-98.599967,1405.84,16.45,0.01,1003.9,18.87,13,53.6,-12.27,-6.71,2.5,-0.1,0,0.67,2.11,-4.41,3.47
16483200,10,31.91397,-98.599967,1405.84,16.45,0,1004.29,18.87,6.75,53.8,-12.33,-6.59,2.62,-0.11,0.01,0.66,2.11,-4.43,3.48
16483300,10,31.91397,-98.599967,1405.84,16.45,0,1004.29,18.87,13,53.8,-12.33,-6.84,2.81,-0.1,0,0.64,2.11,-4.4,3.48
16483300,10,31.91397,-98.599967,1405.84,16.45,0,1004.69,18.87,13,53.8,-12.33,-6.84,2.56,-0.09,0.01,0.67,2.11,-4.43,3.48
16483400,10,31.91397,-98.599967,1405.84,16.45,0,1004.53,18.87,13,54.1,-12.51,-6.84,2.5,-0.09,0.02,0.63,2.11,-4.43,3.48
16483500,10,31.91397,-98.599967,1405.84,16.45,0,1004.29,18.87,13,54.2,-12.39,-7.02,2.62,-0.11,0.02,0.65,2.11,-4.42,3.49
16483500,10,31.91397,-98.599967,1405.84,16.45,0,1004.53,18.81,13,54.2,-12.27,-6.71,2.5,-0.1,0,0.69,2.11,-4.38,3.48
16483600,10,31.91397,-98.599967,1405.84,16.45,0,1004.29,18.87,13,54.2,-12.33,-6.96,2.62,-0.08,0.01,0.66,2.12,-4.39,3.47
